# 
#                 ----------------------------------------------------
#                 Data from a 3D direct N-body simulation. 
# 
#                 rows are i-particle; 
#                 coumns are :mass, tag, x ,y, z, vx, vy, vz, ax, ay, az
# 
#                 NTHU, Computational Physics 
# 
#                 ----------------------------------------------------
#                 Time = 0.0
0.000000000000000000e+00 1.000000000000000000e+00 2.000000000000000000e+00 3.000000000000000000e+00 4.000000000000000000e+00 5.000000000000000000e+00 6.000000000000000000e+00 7.000000000000000000e+00 8.000000000000000000e+00 9.000000000000000000e+00 1.000000000000000000e+01 1.100000000000000000e+01 1.200000000000000000e+01 1.300000000000000000e+01 1.400000000000000000e+01 1.500000000000000000e+01 1.600000000000000000e+01 1.700000000000000000e+01 1.800000000000000000e+01 1.900000000000000000e+01 2.000000000000000000e+01 2.100000000000000000e+01 2.200000000000000000e+01 2.300000000000000000e+01 2.400000000000000000e+01 2.500000000000000000e+01 2.600000000000000000e+01 2.700000000000000000e+01 2.800000000000000000e+01 2.900000000000000000e+01 3.000000000000000000e+01 3.100000000000000000e+01 3.200000000000000000e+01 3.300000000000000000e+01 3.400000000000000000e+01 3.500000000000000000e+01 3.600000000000000000e+01 3.700000000000000000e+01 3.800000000000000000e+01 3.900000000000000000e+01 4.000000000000000000e+01 4.100000000000000000e+01 4.200000000000000000e+01 4.300000000000000000e+01 4.400000000000000000e+01 4.500000000000000000e+01 4.600000000000000000e+01 4.700000000000000000e+01 4.800000000000000000e+01 4.900000000000000000e+01 5.000000000000000000e+01 5.100000000000000000e+01 5.200000000000000000e+01 5.300000000000000000e+01 5.400000000000000000e+01 5.500000000000000000e+01 5.600000000000000000e+01 5.700000000000000000e+01 5.800000000000000000e+01 5.900000000000000000e+01 6.000000000000000000e+01 6.100000000000000000e+01 6.200000000000000000e+01 6.300000000000000000e+01 6.400000000000000000e+01 6.500000000000000000e+01 6.600000000000000000e+01 6.700000000000000000e+01 6.800000000000000000e+01 6.900000000000000000e+01 7.000000000000000000e+01 7.100000000000000000e+01 7.200000000000000000e+01 7.300000000000000000e+01 7.400000000000000000e+01 7.500000000000000000e+01 7.600000000000000000e+01 7.700000000000000000e+01 7.800000000000000000e+01 7.900000000000000000e+01 8.000000000000000000e+01 8.100000000000000000e+01 8.200000000000000000e+01 8.300000000000000000e+01 8.400000000000000000e+01 8.500000000000000000e+01 8.600000000000000000e+01 8.700000000000000000e+01 8.800000000000000000e+01 8.900000000000000000e+01 9.000000000000000000e+01 9.100000000000000000e+01 9.200000000000000000e+01 9.300000000000000000e+01 9.400000000000000000e+01 9.500000000000000000e+01 9.600000000000000000e+01 9.700000000000000000e+01 9.800000000000000000e+01 9.900000000000000000e+01 1.000000000000000000e+02 1.010000000000000000e+02 1.020000000000000000e+02 1.030000000000000000e+02 1.040000000000000000e+02 1.050000000000000000e+02 1.060000000000000000e+02 1.070000000000000000e+02 1.080000000000000000e+02 1.090000000000000000e+02 1.100000000000000000e+02 1.110000000000000000e+02 1.120000000000000000e+02 1.130000000000000000e+02 1.140000000000000000e+02 1.150000000000000000e+02 1.160000000000000000e+02 1.170000000000000000e+02 1.180000000000000000e+02 1.190000000000000000e+02 1.200000000000000000e+02 1.210000000000000000e+02 1.220000000000000000e+02 1.230000000000000000e+02 1.240000000000000000e+02 1.250000000000000000e+02 1.260000000000000000e+02 1.270000000000000000e+02 1.280000000000000000e+02 1.290000000000000000e+02 1.300000000000000000e+02 1.310000000000000000e+02 1.320000000000000000e+02 1.330000000000000000e+02 1.340000000000000000e+02 1.350000000000000000e+02 1.360000000000000000e+02 1.370000000000000000e+02 1.380000000000000000e+02 1.390000000000000000e+02 1.400000000000000000e+02 1.410000000000000000e+02 1.420000000000000000e+02 1.430000000000000000e+02 1.440000000000000000e+02 1.450000000000000000e+02 1.460000000000000000e+02 1.470000000000000000e+02 1.480000000000000000e+02 1.490000000000000000e+02 1.500000000000000000e+02 1.510000000000000000e+02 1.520000000000000000e+02 1.530000000000000000e+02 1.540000000000000000e+02 1.550000000000000000e+02 1.560000000000000000e+02 1.570000000000000000e+02 1.580000000000000000e+02 1.590000000000000000e+02 1.600000000000000000e+02 1.610000000000000000e+02 1.620000000000000000e+02 1.630000000000000000e+02 1.640000000000000000e+02 1.650000000000000000e+02 1.660000000000000000e+02 1.670000000000000000e+02 1.680000000000000000e+02 1.690000000000000000e+02 1.700000000000000000e+02 1.710000000000000000e+02 1.720000000000000000e+02 1.730000000000000000e+02 1.740000000000000000e+02 1.750000000000000000e+02 1.760000000000000000e+02 1.770000000000000000e+02 1.780000000000000000e+02 1.790000000000000000e+02 1.800000000000000000e+02 1.810000000000000000e+02 1.820000000000000000e+02 1.830000000000000000e+02 1.840000000000000000e+02 1.850000000000000000e+02 1.860000000000000000e+02 1.870000000000000000e+02 1.880000000000000000e+02 1.890000000000000000e+02 1.900000000000000000e+02 1.910000000000000000e+02 1.920000000000000000e+02 1.930000000000000000e+02 1.940000000000000000e+02 1.950000000000000000e+02 1.960000000000000000e+02 1.970000000000000000e+02 1.980000000000000000e+02 1.990000000000000000e+02
1.000000000000000000e+00 1.000000000000000000e+00 1.000000000000000000e+00 1.000000000000000000e+00 1.000000000000000000e+00 1.000000000000000000e+00 1.000000000000000000e+00 1.000000000000000000e+00 1.000000000000000000e+00 1.000000000000000000e+00 1.000000000000000000e+00 1.000000000000000000e+00 1.000000000000000000e+00 1.000000000000000000e+00 1.000000000000000000e+00 1.000000000000000000e+00 1.000000000000000000e+00 1.000000000000000000e+00 1.000000000000000000e+00 1.000000000000000000e+00 1.000000000000000000e+00 1.000000000000000000e+00 1.000000000000000000e+00 1.000000000000000000e+00 1.000000000000000000e+00 1.000000000000000000e+00 1.000000000000000000e+00 1.000000000000000000e+00 1.000000000000000000e+00 1.000000000000000000e+00 1.000000000000000000e+00 1.000000000000000000e+00 1.000000000000000000e+00 1.000000000000000000e+00 1.000000000000000000e+00 1.000000000000000000e+00 1.000000000000000000e+00 1.000000000000000000e+00 1.000000000000000000e+00 1.000000000000000000e+00 1.000000000000000000e+00 1.000000000000000000e+00 1.000000000000000000e+00 1.000000000000000000e+00 1.000000000000000000e+00 1.000000000000000000e+00 1.000000000000000000e+00 1.000000000000000000e+00 1.000000000000000000e+00 1.000000000000000000e+00 1.000000000000000000e+00 1.000000000000000000e+00 1.000000000000000000e+00 1.000000000000000000e+00 1.000000000000000000e+00 1.000000000000000000e+00 1.000000000000000000e+00 1.000000000000000000e+00 1.000000000000000000e+00 1.000000000000000000e+00 1.000000000000000000e+00 1.000000000000000000e+00 1.000000000000000000e+00 1.000000000000000000e+00 1.000000000000000000e+00 1.000000000000000000e+00 1.000000000000000000e+00 1.000000000000000000e+00 1.000000000000000000e+00 1.000000000000000000e+00 1.000000000000000000e+00 1.000000000000000000e+00 1.000000000000000000e+00 1.000000000000000000e+00 1.000000000000000000e+00 1.000000000000000000e+00 1.000000000000000000e+00 1.000000000000000000e+00 1.000000000000000000e+00 1.000000000000000000e+00 1.000000000000000000e+00 1.000000000000000000e+00 1.000000000000000000e+00 1.000000000000000000e+00 1.000000000000000000e+00 1.000000000000000000e+00 1.000000000000000000e+00 1.000000000000000000e+00 1.000000000000000000e+00 1.000000000000000000e+00 1.000000000000000000e+00 1.000000000000000000e+00 1.000000000000000000e+00 1.000000000000000000e+00 1.000000000000000000e+00 1.000000000000000000e+00 1.000000000000000000e+00 1.000000000000000000e+00 1.000000000000000000e+00 1.000000000000000000e+00 1.000000000000000000e+00 1.000000000000000000e+00 1.000000000000000000e+00 1.000000000000000000e+00 1.000000000000000000e+00 1.000000000000000000e+00 1.000000000000000000e+00 1.000000000000000000e+00 1.000000000000000000e+00 1.000000000000000000e+00 1.000000000000000000e+00 1.000000000000000000e+00 1.000000000000000000e+00 1.000000000000000000e+00 1.000000000000000000e+00 1.000000000000000000e+00 1.000000000000000000e+00 1.000000000000000000e+00 1.000000000000000000e+00 1.000000000000000000e+00 1.000000000000000000e+00 1.000000000000000000e+00 1.000000000000000000e+00 1.000000000000000000e+00 1.000000000000000000e+00 1.000000000000000000e+00 1.000000000000000000e+00 1.000000000000000000e+00 1.000000000000000000e+00 1.000000000000000000e+00 1.000000000000000000e+00 1.000000000000000000e+00 1.000000000000000000e+00 1.000000000000000000e+00 1.000000000000000000e+00 1.000000000000000000e+00 1.000000000000000000e+00 1.000000000000000000e+00 1.000000000000000000e+00 1.000000000000000000e+00 1.000000000000000000e+00 1.000000000000000000e+00 1.000000000000000000e+00 1.000000000000000000e+00 1.000000000000000000e+00 1.000000000000000000e+00 1.000000000000000000e+00 1.000000000000000000e+00 1.000000000000000000e+00 1.000000000000000000e+00 1.000000000000000000e+00 1.000000000000000000e+00 1.000000000000000000e+00 1.000000000000000000e+00 1.000000000000000000e+00 1.000000000000000000e+00 1.000000000000000000e+00 1.000000000000000000e+00 1.000000000000000000e+00 1.000000000000000000e+00 1.000000000000000000e+00 1.000000000000000000e+00 1.000000000000000000e+00 1.000000000000000000e+00 1.000000000000000000e+00 1.000000000000000000e+00 1.000000000000000000e+00 1.000000000000000000e+00 1.000000000000000000e+00 1.000000000000000000e+00 1.000000000000000000e+00 1.000000000000000000e+00 1.000000000000000000e+00 1.000000000000000000e+00 1.000000000000000000e+00 1.000000000000000000e+00 1.000000000000000000e+00 1.000000000000000000e+00 1.000000000000000000e+00 1.000000000000000000e+00 1.000000000000000000e+00 1.000000000000000000e+00 1.000000000000000000e+00 1.000000000000000000e+00 1.000000000000000000e+00 1.000000000000000000e+00 1.000000000000000000e+00 1.000000000000000000e+00 1.000000000000000000e+00 1.000000000000000000e+00 1.000000000000000000e+00 1.000000000000000000e+00 1.000000000000000000e+00 1.000000000000000000e+00 1.000000000000000000e+00 1.000000000000000000e+00 1.000000000000000000e+00 1.000000000000000000e+00 1.000000000000000000e+00 1.000000000000000000e+00
6.240133892697341533e-01 4.823831685957351567e-01 6.761811803492161488e-01 2.492759859925384180e-01 6.158669428446224003e-01 2.340089625533448014e-01 6.691611340353090798e-01 6.255781759493226346e-01 7.854082000614459602e-02 6.841897991046056449e-01 1.909679281566746267e-01 3.709738728908327232e-01 5.730579662067083468e-01 4.140175874121611033e-01 7.398488634924494933e-01 4.222761045711401762e-01 5.950490796626127787e-01 5.551524578612516692e-01 8.917045280610987890e-01 6.164118768348434418e-01 5.504827284877505944e-01 2.603150468984647414e-01 3.415772322825267882e-01 7.519846606669599032e-01 4.191786685284980551e-01 6.154527769303550500e-01 6.376993936443370314e-01 6.576049369171063086e-01 1.377300493833186756e-01 6.088916912678343785e-01 4.070018476168267840e-01 5.905197604029325253e-01 8.789377861074532117e-01 3.773765858505485626e-01 3.015818658778516292e-01 9.062064283915046703e-01 7.983434069928048160e-01 9.510494913805227490e-01 4.198470541015670854e-01 5.549947508149265518e-01 2.998171139711880429e-02 3.914357730565215521e-01 7.417723960698596741e-02 6.568809704993533449e-01 8.756693788625308228e-01 6.786427323524615307e-01 1.143983206659637819e-02 2.829879032665792993e-01 3.044734013993699584e-02 1.224489186985600053e-01 7.247205006284774820e-01 4.625366817112859241e-01 1.429837134643318075e-01 2.269706018193626829e-01 4.673167687849181240e-01 5.612050624102149499e-02 9.646536635064724141e-01 9.838676763800849878e-01 7.632280494049569208e-01 3.038615554897727833e-02 6.860395246132425795e-01 5.721434265840144029e-01 4.428491985301898914e-01 1.403989302748107626e-01 2.957258247790151007e-02 5.926832868776267249e-01 2.933779238462540517e-01 3.833216792935368877e-01 1.633531964842150908e-01 4.769737214121876345e-01 6.049185551863071053e-01 5.733265611855704602e-01 2.556180637264022781e-01 2.009860717683089604e-01 6.838178604888843770e-01 9.163788080112242884e-01 1.133861065357331110e-01 5.351121452346266905e-01 8.144881838735119617e-01 3.130303096523734396e-02 1.359531651633857363e-01 7.691679670514015577e-01 4.121779641916858417e-01 7.600399928972412233e-01 8.782598532022429794e-01 9.926425603684108090e-01 3.265900947138533628e-01 1.486985070019297694e-01 6.759489163694393232e-01 5.303742737384217198e-01 4.146217790253967639e-01 7.437699651329032768e-01 7.051489019066936592e-02 4.470885997454643324e-01 9.728058874606800854e-01 4.899918358244229610e-01 2.895124592780743411e-01 3.329354379816338305e-01 6.467654764008148316e-01 3.498035293808940960e-01 4.665194453672915076e-01 2.786183319206438913e-01 2.038349748904750847e-01 9.571104715101420579e-01 7.577950892400991956e-01 9.125907269411951406e-01 8.182670464216398321e-01 6.824151487691763052e-01 9.484028026875229722e-01 2.396812445022256099e-01 3.280308900063765298e-01 6.175717321100596680e-01 2.843549921795291979e-01 2.886906051553760344e-01 1.662960908704310681e-01 5.893111940635054058e-02 9.906306028898319571e-01 3.127430053442123992e-01 8.730760115939503185e-01 8.551948723245090811e-01 6.610456605647140327e-01 5.819721577774361609e-02 2.775446686086175951e-01 6.397480768311807342e-01 8.208420272781101756e-01 7.769585315657366875e-01 9.434376483095437971e-01 9.268298841730796545e-01 4.042152492705954892e-01 4.587320768345279909e-01 4.756475137239840612e-01 7.158326915741054508e-01 6.147444785284588153e-01 8.482898173095310135e-02 9.950121796674068486e-01 6.276264309237732375e-01 9.642633615388399582e-01 7.076617667512514753e-01 6.089062672970426693e-01 5.789836854371374075e-01 1.379699583827792564e-01 1.833706734493490975e-01 8.668558803268399116e-01 6.496667743873079104e-01 4.552538124409558629e-01 3.756767930452468152e-01 1.712469719083961062e-01 8.052644275437179644e-01 3.349084604395760056e-01 7.380869940531676887e-01 1.415393741142962902e-01 8.568850988548759595e-01 1.687503780741309578e-01 9.976146960312646250e-01 2.352987972897226943e-01 7.869476160223746186e-01 3.230172670591490158e-01 1.253593194174160708e-01 1.929281916432696864e-01 5.815073536218096084e-01 2.343772836596946796e-02 2.757388689263425841e-01 4.793179432259434547e-01 3.018516636054793256e-01 9.001251550103375187e-01 5.374928501644780088e-01 3.008951991598520781e-01 1.791369971841549891e-02 7.679926918562451910e-01 8.849721440499619396e-01 6.572402134528203543e-01 7.586366179622139327e-02 3.463160712953616827e-02 8.221418699987091960e-01 5.170441403355515719e-01 9.049372115499054736e-03 5.372094556390536457e-01 6.838503340967050370e-02 1.440246496256146758e-01 6.816093826045194204e-01 9.972952428797785540e-01 4.795691325743351996e-01 4.993234004330456832e-01 6.451382963231342416e-01 3.806309982834864547e-01 3.973586517840445032e-01 4.544121574870418900e-01 2.802245371364758819e-01 4.383542907848578807e-01 7.805251853058675637e-01 1.371588958431567695e-01 1.465720866330250116e-01 8.853325958942613871e-01 9.385157869632497762e-01 8.114361015183300108e-01 4.874001723474531422e-01 4.256460848418005538e-01 8.554573452666272004e-01 6.272608162837162160e-01 7.524147062153324628e-01
6.070914609314908006e-01 4.720291344907620035e-01 3.475765882194352674e-01 9.964490639413738915e-01 4.225684354143159904e-01 4.297332200115970835e-01 3.780116997958835601e-01 2.384411601450554530e-01 2.723129006307190014e-01 2.510735144650618755e-01 2.098583000096418960e-01 8.570967272310558993e-02 9.229979228702761551e-01 7.787892021767572892e-01 6.598407467705557083e-01 6.311415808701267283e-01 5.593283150414422034e-01 9.570774584157257792e-01 8.950446926925826885e-01 8.886043634458201668e-01 1.778517941331519969e-01 4.503718550417914468e-01 6.419156267037617880e-02 6.655057803764411473e-01 3.774710515753885165e-01 5.556109106265493258e-01 4.745452544702686293e-01 5.321758060199197615e-01 9.152871070967241174e-01 6.808581035491894085e-01 8.340647065441268992e-01 8.489203413365868922e-01 9.886483767780925858e-01 9.140412769207245658e-01 6.430641294334600300e-01 1.978128929214164611e-01 9.018979135380884582e-01 6.924098198119855718e-01 4.195636527958775952e-01 2.073494463836944579e-02 7.453395289401143486e-02 9.936587665724434526e-01 8.564619893575786680e-02 2.618167552834204104e-01 2.589850047415409584e-03 9.203557723387598699e-01 2.224236984400850270e-01 6.588433112953796522e-01 9.723785465299059627e-01 2.476116295079717755e-01 6.968740273591866874e-02 1.724386860864678406e-01 5.171483368653077006e-01 6.352376241881474428e-02 7.495042785967114263e-01 7.056548424813172682e-01 3.392789405979075301e-01 1.946440287210695619e-01 5.866936894687557746e-02 4.385878834593881503e-02 2.397995891166370130e-01 3.567677448634555271e-01 8.263582754438033584e-01 2.909266455815039398e-01 4.363710315348234836e-02 5.130513088042465419e-02 9.642847040541258075e-02 5.600992560629507455e-01 1.837126411832185058e-01 9.783070208734163664e-01 6.129960179999475178e-01 4.344915191980837088e-01 5.151374706945741622e-01 8.672938214232713827e-01 7.458915682987318219e-01 6.081928326787932049e-01 5.389691222649162228e-01 3.775566177639575471e-01 2.804169166395972246e-01 2.845747641839445619e-01 5.201163237049604149e-01 2.554177392173117012e-01 8.323486634629200243e-01 7.572650290711108179e-01 1.746746865751392930e-01 2.519124649901224311e-01 8.002599906269288743e-01 5.242252355371002093e-02 9.701024821417114641e-02 5.160945027733591095e-01 9.890906247683308727e-01 2.739809605554101024e-01 8.839718373620372160e-01 8.298296909335998173e-01 7.895501223691679948e-01 4.174565609800976462e-01 6.990251067489652304e-01 3.784372981860693042e-01 4.052518792006062354e-01 1.925427214178303537e-01 2.186448813564563221e-01 2.373453861698313627e-01 7.162112717696063058e-01 2.833275520964728678e-02 3.243633118114952474e-01 4.360078967303426811e-02 6.494545804291125268e-01 2.278727256059654982e-01 2.422094454888301662e-01 2.817311216553457509e-01 5.530558384990076348e-01 5.133512519754935832e-01 5.769798545334403617e-02 9.644405032398561950e-02 2.034173277053644702e-01 9.866663486536471073e-01 9.375290617044993446e-01 5.707421100132501479e-01 9.055420563703170389e-01 2.074453115960203098e-01 6.298827259329675687e-02 2.818386779636723460e-01 7.357454378040182430e-01 7.012570909932167584e-01 7.132789243744629415e-01 9.293731960549032056e-01 6.393431895966690259e-01 5.590879957144998524e-01 5.789002880406235452e-01 5.949449626628324772e-01 6.610313340379859737e-01 8.320083902866315384e-02 6.101784334205651028e-01 5.799068669047059421e-01 7.810863425114132896e-01 1.716112654392051295e-01 1.529972233420839878e-01 1.651876169393666771e-01 9.177411823125307677e-01 3.025030973297297976e-01 6.446560404066405958e-01 5.473131470964862633e-01 1.373364092012128168e-01 8.613134669749533678e-02 8.808819961006258970e-01 9.205915388544883005e-02 7.907702815542845265e-01 1.602646463554311396e-01 5.345001304841301426e-01 6.367398657044389676e-01 7.809062752255776507e-01 6.863681026820280806e-01 7.887137694494309459e-01 6.122103904703787292e-01 4.929840646872152288e-01 5.964991046829614119e-01 6.263591291493610935e-01 5.568662032939026840e-01 8.543773959654823447e-01 9.338915217512397948e-01 9.852070137182105114e-01 3.567584218115481542e-01 5.521308894703954584e-01 6.881530689567794123e-02 6.170963125213601019e-01 8.896981465928104349e-01 1.544188153107400874e-01 1.309348963804820576e-01 3.036445714405235918e-01 7.956444990285038710e-01 9.265250276487009273e-01 3.021047382941788317e-01 4.639907335535800037e-01 6.259018140024273924e-01 4.915573077682622305e-01 6.309745197045379950e-01 5.730833055580593083e-01 7.789527070453579061e-01 8.060489113903878122e-01 7.062686620352726097e-01 4.804448771042844069e-01 8.876032299484277743e-01 3.662545119674198713e-02 8.405337844721845197e-01 5.750455734643465933e-01 2.323630711955237960e-01 9.413135735108303370e-01 4.978721228034309609e-01 3.141772606444596105e-01 1.331151707666161643e-01 6.696939431490023242e-02 7.287526024625670118e-01 9.405191680308225832e-01 4.946151445863768981e-01 4.362852023331157403e-01 9.606169790060212765e-01 3.994765307268998145e-01 9.490582790010358982e-01 7.558984734988261067e-01 8.273582765695629559e-01
9.110406345944401796e-01 9.085172711707628634e-01 1.379783294589416176e-01 3.132597154577781984e-01 2.053224947259622013e-01 6.343254433376184220e-01 4.765191621472740779e-01 9.832153704132311489e-01 7.413531655144369736e-01 5.142464559558918014e-01 8.898982448077787932e-01 4.137055703313122779e-01 1.546766765558660328e-01 6.093128720521761021e-01 4.301965461169163785e-01 6.826456328739730628e-01 8.280444356034771802e-01 9.182606110909141695e-02 4.151746562011635611e-01 4.587870312753953295e-01 8.999185605298191115e-01 5.263578074560348874e-03 7.757845015829301083e-01 8.270776203170732144e-01 4.098820014635520259e-01 3.930985927964901760e-01 7.863762628364786567e-01 4.391715193799538008e-01 5.071131515358462405e-01 7.463556464521357015e-01 4.699748742618351516e-01 4.450471829995061857e-02 2.370946680190523237e-01 2.790026265561640351e-01 2.185617919516325003e-02 9.586121088564000248e-01 7.534064917096541247e-01 7.189786939831679380e-01 1.775126091905848691e-01 3.718340976097960215e-01 3.551413765087079177e-01 9.834723286193797209e-01 1.918749781172943703e-01 1.795407041410458371e-01 1.078801247303164956e-01 1.730952792434869991e-01 5.210044079337824430e-01 6.943210125161202173e-01 7.983568959975584356e-02 3.329359226347082812e-01 8.078898996327232851e-01 6.518204987513518400e-01 9.630731734603132921e-01 2.413611856940955924e-02 5.893433005446953032e-01 6.894651208884917670e-01 8.145460177000476421e-01 6.761019768437291910e-01 9.562873456745909495e-01 3.796972255004915642e-01 4.135810035826859021e-02 5.976826692123083928e-01 8.488645314035045963e-01 6.748198920867530815e-01 4.413980087374643757e-01 6.797271484786082674e-02 5.287465020486088463e-01 4.129824277799755139e-01 3.267004858086240970e-01 2.278133524600045590e-03 3.724467753666530490e-01 9.532731837002661468e-02 4.207944822728888479e-01 2.343155147880582323e-01 7.643952275381032946e-01 3.980369730698256614e-01 2.992720779863038416e-01 6.011504244329228808e-01 8.769992128918175922e-01 4.761923839294757155e-01 6.422611872252620424e-01 3.404092814898822539e-01 9.895523333114838449e-01 9.713230100981732340e-01 8.751232648520383961e-01 5.428762098811324988e-01 8.500758770141557674e-01 2.538974170724431767e-01 1.624481535990771608e-01 6.332074011302415428e-01 5.912272336681710927e-01 5.883011662568379263e-01 6.436995306165910202e-01 3.828017642355054928e-01 8.395729060971600655e-01 4.681473794120710741e-01 1.631651441217548681e-01 6.323656173140372871e-01 4.511979546997244572e-01 2.970061452069256980e-01 5.281243810517434190e-01 8.022954435434355158e-01 3.522893381410471259e-01 1.601136673652290288e-01 3.417424730203351135e-01 2.857178334437875389e-01 1.618036874484063414e-01 1.892246656729115184e-01 9.793111044813251898e-02 1.145738686914784532e-01 6.652612817391312383e-02 4.756969726126205611e-01 3.864829525925351783e-01 5.562096379666693347e-01 6.643141439873274656e-01 7.076141608552422024e-01 3.015775025511348018e-01 6.524246374477077337e-01 5.696162395582238247e-01 2.028485893332288015e-01 9.500553909455288215e-01 6.705373226766538908e-01 5.684326384781284158e-01 8.915603649370082984e-01 8.165838891459554771e-01 4.081902814118524292e-01 9.930872639041634642e-01 9.156830071611494759e-01 2.719040582285623397e-01 3.307559447373500383e-01 6.348131961399400280e-01 4.620646246587665207e-01 7.451491526352156392e-01 2.067180509813034694e-01 2.266141322132987357e-01 4.322491151401606224e-01 5.631787008576424336e-01 6.001760000780558268e-01 7.208997350488575151e-01 5.828140527203738985e-01 4.581240909308025300e-01 8.670008243984940188e-01 4.638907780282399695e-01 8.732783260999034125e-01 8.238966430464839119e-01 5.727567965923069382e-01 7.817920963450551985e-01 5.456730093322048614e-01 5.926854238106149531e-02 8.316276311097888785e-01 9.314542942415658944e-01 1.326879615022427128e-01 4.305571910315878492e-01 3.499769231899275690e-01 8.108614985787858664e-01 4.509650914892371354e-01 7.172576308734968098e-02 3.614121937573842036e-01 4.145512403978900418e-01 2.802800127022463395e-01 5.219709320945664643e-01 7.864697526426855934e-01 5.463949149009704742e-01 5.934192847987845854e-01 5.033261771980340749e-01 7.414377684999913232e-01 9.893071339731555058e-01 8.538205720653478936e-01 8.297801898522060293e-01 6.567410151954884423e-01 8.571080042082133144e-01 8.828335551815063020e-01 7.351387309242561896e-01 2.373169129548596823e-01 6.197799825399429308e-01 4.740578444182766971e-01 9.871118510313073857e-01 4.531643527904654078e-01 2.092802545072202092e-01 3.253098417568378586e-03 2.046244982757872144e-01 4.605541988085229965e-01 5.829056846072148135e-01 6.561695831139118251e-01 6.212688230329653782e-01 8.318277020905180397e-01 3.863155712651878959e-01 3.217427350383044171e-01 2.418235587784118845e-01 9.704780537500812265e-02 2.080846278471525368e-01 2.244968844276934439e-01 8.324600688231129642e-01 9.973004125476098158e-01 5.078515009105768474e-01 2.729547298402169586e-01 9.349807761437993747e-01 6.228200565129511368e-01 6.371468380795284325e-01 7.035349693321141240e-01
9.594982027895371246e-01 6.762440826285729401e-01 4.730356315797182853e-01 1.450399684783730825e-01 9.498367061030984493e-01 6.964392481913967980e-01 7.343387133099605890e-01 3.834605049276064159e-01 9.870365007481278763e-01 6.140768197623863722e-01 3.465369049789580602e-01 8.219990813034905308e-02 1.066491281362654808e-01 1.826938918931589884e-01 2.494023391592459227e-01 3.558444690656570319e-02 1.097153744017589361e-01 2.795896833955491267e-01 5.788555708096406738e-01 5.344806734822200589e-01 6.761904853976297147e-02 2.139030043696742434e-01 3.735219261905224908e-01 6.055407533645135176e-01 8.244408219547748606e-01 7.058372459919118880e-01 9.120430488173150163e-01 4.807625383458092871e-01 5.694326909593069308e-01 1.819569899810495883e-01 5.981934829488778638e-01 2.040720220476280877e-01 7.778654596214740202e-02 1.523021995669937567e-01 3.040532517714016336e-01 7.570148162413268267e-01 4.284306330287576126e-01 3.438092494873957738e-01 1.069641903815090611e-01 3.414643707580312659e-01 6.750084649668981474e-01 5.748582260324882620e-01 5.714580838315800326e-01 6.603918328267195381e-01 5.393403709329869233e-01 5.386777669895307374e-01 3.850342493196023952e-01 2.677555348905230614e-01 9.670159240611941875e-01 7.230749940423538691e-01 2.218104046051581069e-01 6.472450519976202798e-01 5.291497721588447334e-01 7.243205211675793898e-01 6.233180440663009803e-01 3.803555157868995229e-01 4.028151625486079412e-01 1.406217467400086019e-01 7.962383982409246830e-01 7.691890991565406566e-01 7.017176660965751545e-02 8.453448000054217815e-01 2.121086379277284939e-01 7.650269709399605267e-01 9.416198180318234856e-01 8.673038561820622938e-01 8.906976332935256924e-02 7.485309493013575510e-01 7.873863734244734847e-01 7.049255201420070449e-01 8.596221453957393344e-01 4.706810857591096076e-01 3.594995025333014294e-02 8.358387127396843530e-01 4.282652814899544635e-01 1.448727976884938151e-01 9.897564524142088427e-01 7.116760705005086285e-01 3.258704421726911216e-01 3.100624335409558618e-01 5.659955446669043821e-01 7.711844417275691699e-01 5.786393138988745743e-01 2.895383686005990054e-01 2.701648145519746080e-01 6.314468101306422998e-01 8.188298064339321058e-01 9.099948159046659102e-01 3.434643291521088937e-02 6.596681460657870533e-01 9.894707410143133153e-02 4.446477631005575359e-01 4.601834925138793553e-01 4.732497291210399082e-01 6.707318050819500721e-01 6.576837725349338193e-01 7.015734814026459709e-01 1.555475477510918081e-01 9.863574512289557950e-01 7.998598676930664952e-01 3.286046296910647424e-01 9.719212758470068270e-01 8.901194974265027593e-01 6.964306426105962844e-01 4.267076507536489149e-01 1.486303239870744308e-01 1.610145650049991106e-01 8.682549489863852221e-01 8.524875590626052047e-01 7.741122819075287875e-01 6.529792083239924771e-01 9.298020458733879945e-01 5.407837067162486466e-01 4.059630149134684229e-01 1.868696969159909793e-01 4.723718073116672800e-01 7.780959683988891706e-01 9.941124854609908468e-01 7.997869308951970346e-01 3.549650650307126787e-01 9.972796912237329447e-01 4.878300112009701373e-01 4.204001041561716834e-01 8.477614942471519699e-01 6.563520905101889458e-01 6.440947880778121748e-01 9.992657053939386635e-01 1.986539934057048873e-01 1.016398337854940159e-02 2.135215682226930811e-01 8.884646870616466074e-01 1.055444790974365832e-01 9.644589870312211266e-01 2.908925752789183194e-01 2.070112473385147256e-01 9.945280589203512323e-01 8.381728996753222694e-01 7.559112601956951005e-01 4.196933552229303865e-01 7.594662328177789190e-01 2.644847366409938116e-01 7.346047857091431155e-01 4.255677032051976560e-01 2.347260429232711498e-02 7.624771861890418112e-01 1.552788747018967186e-01 8.539054845535780647e-01 7.642212276004115568e-01 1.823445884670301664e-01 8.907401750590175915e-01 4.146212805857778516e-01 4.245532054728885507e-01 2.081940167050764234e-01 9.772611439287115509e-02 9.714707274942243620e-01 7.627055684040197070e-01 3.402491523451904865e-01 6.157426819630511527e-01 3.047323634451359897e-02 8.880038032777557433e-01 8.839284525249998525e-01 8.780149786713173921e-01 3.922475552449239400e-01 8.055067314146440172e-01 8.189956676549868808e-01 8.161882828118606215e-01 5.442420579560924843e-01 3.696813429427142639e-01 8.668892160382762890e-01 8.105539068071090369e-01 3.486520361943292734e-01 3.135233863519597541e-01 4.143098748751734561e-01 8.636453864987534423e-01 6.067208225947433586e-01 3.576313958845962482e-01 8.193468378328487844e-01 7.631304982188692465e-01 4.782434486467123103e-01 9.128868139974570806e-01 2.512634519053051907e-01 6.460767195670130691e-01 3.363873453723518203e-01 2.761721222463919823e-01 6.617438152839149046e-01 1.711605602189611997e-01 8.658965271762320004e-02 3.262129325762842535e-01 6.117525092193639713e-01 7.826353934155088066e-01 5.595535199794864356e-01 7.621076180362788000e-01 7.849400612882220241e-01 5.626527681751311016e-01 2.862306755136373448e-01 8.017979714287555293e-01 6.821399456085366353e-01 6.664129796416833340e-01 3.321390273951756456e-01 9.862638806635817268e-01
5.609442230792995865e-01 3.636791880766346852e-01 2.521751221072875415e-01 9.988500101741561998e-01 3.135405471928796040e-01 8.326627956716466938e-01 7.257361924926619690e-02 1.878528985544253294e-01 1.854332509943071861e-01 8.536207588787154688e-01 7.774272925086364028e-01 4.254248739289606673e-01 6.378951201932738790e-01 3.047526422875967977e-02 6.081347766845804914e-01 3.979126998175143148e-01 2.925677790268635947e-01 8.748310293348036115e-01 8.122854687236591431e-02 2.725905488413388200e-01 1.356523086692377200e-01 8.945526119218170091e-01 7.371800454961284776e-01 2.232442484538093019e-01 9.404272382826541765e-01 6.428500506432061057e-01 2.032235404263124101e-01 3.320901845446441181e-01 8.831728299705572383e-01 7.341220232939937862e-02 6.884625908717972864e-01 9.228560188332822767e-01 1.818738610422634405e-01 3.486448998336257876e-01 9.636432348953146709e-01 3.859894906295705530e-01 6.341921672593374693e-01 1.021217787392795229e-01 5.245178690936438404e-01 9.485428132265385504e-01 3.931356513446753187e-01 3.176138946938659169e-01 5.436101734719248624e-01 6.929026167036300698e-01 2.751739441165212963e-02 3.440870898432606406e-01 5.872429626862784025e-01 8.983456242164432615e-01 9.448078884974183689e-01 5.175381279567358161e-01 5.058133918972211873e-01 7.349857797622083577e-02 1.164246212930073465e-01 7.598786484206662140e-01 5.151941298910387435e-01 4.453544328090652815e-01 9.909541198675534401e-01 8.623523518435783908e-01 4.043865539776050344e-01 9.206523462630870069e-01 1.385356710283573989e-01 4.046611140839848630e-01 1.229980180150106461e-01 7.644570417750040647e-02 7.424880418697276108e-01 5.047983290216019325e-01 1.402248103884951025e-02 2.435507459411953013e-01 7.990064405342807152e-01 9.171333133282428829e-01 5.638667674237188843e-01 5.330872588969796100e-01 7.419079807802977378e-01 3.066835615649982083e-01 3.993119877229778236e-02 8.215143978371141076e-01 5.916080276732110788e-01 9.849161825976028295e-01 9.224964107443315298e-01 1.258565915219324038e-01 3.594340434776716053e-01 7.266574833931056521e-01 5.382536631562336860e-01 1.094336775250158711e-01 8.735421021543703368e-01 9.618304556246654036e-01 1.505161937986581044e-01 9.689294982092677699e-02 2.079185215221490690e-01 4.262165463060360038e-01 1.743099707087062411e-01 9.256486745666849814e-01 8.550208469208584461e-01 6.160370152430509894e-01 7.400341289560469216e-01 1.893447294908809919e-01 6.917885906467505785e-01 3.865514634019064921e-01 2.021922499101047599e-03 9.708666324169434869e-01 2.997677737569193201e-02 2.617480780123606632e-01 6.202520387087354647e-01 2.536031787699296602e-01 7.210250841615374329e-01 6.833413227303397619e-02 1.040345120259503764e-01 7.592208398271129699e-01 5.773136182078169032e-01 1.703049530072534568e-01 7.243948688840755601e-01 4.777390150762779175e-01 5.566262989497687830e-01 8.192977623946606780e-02 2.557616145021214260e-01 3.844574083435761125e-01 6.566917279732794599e-01 9.495693137111936855e-01 7.243567490511645390e-01 7.784915768287345994e-01 3.052117250805439497e-01 6.889841106172056584e-02 8.697024229932580619e-01 7.126094920939407551e-02 7.756055447849578011e-01 3.941784600657551874e-01 3.881088064404414339e-02 5.324175658747609674e-01 5.320019180055535202e-02 6.130566057317029527e-01 9.970244578119559220e-01 3.211010320806434448e-01 6.538141171224221004e-01 5.483937584899239992e-01 2.641747996598656778e-01 4.805578304762415653e-01 1.029195272582524856e-01 4.786604775682312685e-02 5.221696538644580166e-01 2.265938585145657047e-01 6.913817374196984389e-01 8.097823728580195723e-01 5.801339821058459911e-03 9.678976301155211015e-01 6.905955265347718530e-02 9.147515509804560185e-02 6.838740767459935421e-01 1.380381636875145368e-01 6.440634097056833207e-01 4.348386663570678046e-01 5.624971839133185991e-01 5.716202494891216013e-01 2.244865349661794296e-01 4.143434759835205039e-01 2.647511834953594212e-01 6.440743646803421818e-01 4.278953335987377704e-01 8.055332562219682524e-01 2.802395457786804878e-01 6.120352427387431016e-01 3.151178400186286366e-01 2.406352636965731762e-01 5.444065999026335145e-01 8.948807520188554188e-01 4.346805606208459238e-01 4.554489976948881136e-01 7.414156770884461345e-02 6.330030896721421385e-01 3.527636285002250238e-01 5.603706108598877078e-01 4.768399054704719475e-03 8.383338273913548688e-01 5.363967442809186581e-01 9.015923551585014462e-01 1.455684242042387666e-01 8.679310315221872019e-01 7.556096499896449714e-01 3.652252306080397970e-01 6.123700663869003913e-01 4.949721472583472615e-01 4.045708646724299751e-01 7.984409545394232088e-01 3.067257923887733995e-01 7.436780348976476107e-01 5.816640887922102099e-01 5.978748094714265715e-01 4.566241611235642983e-01 8.046254667513363934e-02 2.970474706977412893e-01 2.073751169572281006e-01 4.542485520119576847e-02 2.817754813705231065e-01 1.475614418093954550e-01 9.760318302974692051e-01 6.512547396275347733e-01 2.226982978604742369e-01 7.946666822110236561e-01 3.636081614011655860e-01 5.680691817867389304e-02 5.925513021413788550e-01
8.203722615723617606e-01 4.561579837195804954e-01 9.597745250934140993e-01 2.672650948943896543e-01 1.765360019008765935e-02 4.757738570891314467e-01 5.412666437013750054e-01 7.119481283441617681e-01 9.878154582037124154e-02 6.922834551040605300e-01 6.229989097707967494e-01 6.569005857255162395e-01 6.554424450071310027e-01 3.726569744805263706e-02 2.858726090291102695e-01 5.706531700591143119e-01 6.394647074826999011e-01 5.105316115373330632e-01 5.458490648879698037e-01 3.980190916213149910e-01 4.074151109846694263e-01 3.966657720016243394e-01 9.136399955815908136e-01 7.806876598935523770e-01 1.083730409883009171e-01 6.155199441263801141e-01 5.239186171026012362e-01 5.535962328977683811e-01 4.453856982719137658e-01 1.605288750161781852e-01 8.500834821824095888e-01 8.388102991363013405e-01 6.138515133696628157e-01 7.146631245799850429e-02 4.941787163751822920e-01 8.848377724513306619e-01 1.963807601176102979e-01 8.187649428792609374e-01 5.620039037650335079e-01 8.671503258019543914e-01 7.277993789816151748e-01 6.789966270227804079e-01 1.080752599530807601e-01 3.912526400331211018e-01 9.553127497244073840e-02 4.420711020383497614e-01 1.942758553510496311e-01 5.688228272720723400e-01 2.117312097619935551e-01 3.871277367894224719e-01 4.073302550778538089e-01 7.405612040302407273e-01 5.243873837250254688e-01 4.288647667641342087e-01 5.981404367137648226e-01 2.931735065923064543e-01 3.347570306563996123e-01 5.189240675068763631e-01 3.269972692756237809e-01 4.192362172865098380e-01 4.126883268065945076e-01 4.866048810451606421e-01 1.579245302330258838e-01 4.463411521561111428e-02 8.748187414336353607e-01 8.030206047734347319e-01 6.640991504489952568e-01 4.051310805632497569e-01 5.193421263431886592e-01 1.382980281007667456e-01 2.311365550483502895e-01 6.240272689461787703e-01 9.711375297713003008e-01 6.346337209152341785e-02 5.725984244445057048e-01 9.638738685778822646e-01 4.291302171893544015e-01 8.224248291631746088e-01 4.590344221274514913e-01 2.206889262054627654e-01 4.879093994015013536e-01 2.962938529775320795e-01 1.159031977452954498e-01 9.113145278027766638e-01 3.435869834322030636e-01 1.196068767374904862e-01 6.571667511192603728e-01 2.525116479287115023e-02 6.910020791427317066e-01 7.591233385230944375e-01 3.637763673365048689e-01 1.586914551446700905e-01 7.837551497159874758e-01 3.040178368051085211e-01 6.854060034249634947e-01 4.563746989526411557e-01 2.271220210205583401e-01 8.903004894981498829e-01 9.884588586612815808e-01 7.076240683215011540e-01 1.901763572458003981e-02 8.746133784769062336e-01 6.100046721264884564e-02 5.379296708128566973e-01 4.899752398129068043e-01 7.873591384775114888e-01 8.789284068134533001e-01 3.028741382341675337e-01 1.952448510893773914e-01 1.226379203339000856e-02 2.030090492093246102e-01 7.975726247851372408e-01 1.929674263462198835e-01 2.844235775258011634e-01 8.739072261142535325e-01 8.422621313993734482e-01 6.156435717949584330e-01 3.246138824881588114e-01 4.900371392790816572e-01 5.713455829047036083e-01 3.932290545688149619e-01 2.219596765530164051e-01 5.640919067344547511e-01 3.840938019783236568e-01 4.032714196346464108e-01 2.928429271310850623e-02 3.921886205242349765e-01 1.234390168575417723e-01 9.665577996197309840e-01 1.943192430466113008e-01 1.342855496104267132e-02 7.008736353357902793e-01 2.276353295143460631e-01 7.137113933292086321e-01 4.670606089991973242e-01 7.276203589543250860e-02 8.477514586856513823e-01 3.075837594277154308e-01 6.090275974578196472e-01 2.836637178772237755e-01 2.680300218224338504e-01 4.222973104565846958e-01 9.105681822186310059e-01 4.823094545061147320e-01 1.796125053599029187e-01 9.083502582154996396e-01 1.420295069973132041e-01 5.256050623133304844e-01 3.556572655705201313e-01 4.137265695110035058e-01 8.844977826794072628e-01 6.933195080159971768e-01 8.244564427416783969e-01 6.193066259210301405e-01 3.532841618239662695e-01 9.066891501405519582e-01 2.006143977262363487e-01 4.423920432409750303e-01 3.890860644260971668e-01 8.942972910220776672e-01 8.410214501899381245e-01 2.391823824723959824e-02 4.037166535432401560e-03 5.512708970055837376e-01 3.909424238191696599e-01 9.739605319105893999e-01 2.702781387992073681e-01 5.278653057196857068e-01 6.582700267877310552e-01 2.616562047278767622e-01 6.587713346409233006e-01 4.808078777205770926e-02 9.213876205889861559e-01 4.781704350462470110e-01 1.188679595850309356e-01 1.643773427893417960e-01 5.816544010432568301e-01 8.381423231567164400e-01 7.837741511759501734e-01 1.299833465898093676e-01 4.777535635579033269e-03 4.634332908132565709e-01 2.960509789789325108e-01 3.208089657059473021e-01 1.945613168016621097e-01 3.741142518410586204e-01 7.802558901982059592e-01 4.417461501075026220e-02 6.241223301851516192e-01 4.946778438399531685e-01 8.496056281859627468e-01 5.802470114277452629e-01 9.489924211732735371e-01 1.623343695757674121e-01 8.080079991030511000e-01 9.664604577771277460e-01 5.885556395912237004e-01 9.656767588971492122e-01 8.498563839191741742e-01 2.869577434350307765e-01
3.750703278979009569e-01 5.482199048998029900e-01 6.188060846927174730e-01 1.312643269190602036e-01 8.022072528974422134e-02 1.740773627066727336e-02 3.193244535426414954e-01 8.824118607666188163e-01 7.722467522665963369e-01 3.568760057639627226e-01 5.037717259650693613e-01 6.740849953637686465e-01 5.791648700095889390e-01 1.330263334821446541e-02 2.147167791428461481e-02 8.962122244757034784e-01 2.840692772873687488e-01 6.296322140691562597e-01 8.739967390768708100e-01 5.236207219457053030e-01 5.892850587792101136e-01 2.799521857637347066e-01 1.596335555706849263e-01 4.284859028746483833e-01 4.162462661465974323e-01 1.334011997131523408e-02 4.700544441774975324e-01 3.046289898060101642e-01 3.718741989013499838e-01 8.415540324447293719e-01 3.455856189292083602e-01 8.047179288613773851e-01 8.103495276006174031e-01 9.317810794056327062e-01 6.352118695571180584e-01 2.482271298055430675e-01 9.429619411602322421e-01 5.980799348395615667e-01 8.409647997934961428e-01 6.552643436560298129e-01 7.616727146915613922e-01 2.846445052791727326e-01 3.557133228586961682e-01 4.728734726617120909e-01 5.177118065291065330e-01 8.350885153195444222e-01 6.205514767559312528e-01 3.388738649739319042e-01 8.870818126445513263e-01 8.461897365268643556e-01 1.963205823933411587e-02 6.901558888384520252e-01 8.212338866058765952e-01 4.768533573766183808e-01 5.369114942092193532e-01 4.764722421903977434e-01 5.284437468597596999e-01 5.300063525293690070e-01 8.778750441350582356e-01 1.518890074596903617e-01 7.645886779521274823e-01 6.525963655930929752e-01 1.942954613799284802e-01 2.808586453704939867e-01 1.758245952947069535e-01 9.519566692250051032e-01 7.834866298253206907e-02 7.663469595919047972e-01 2.294836888918563300e-01 1.874455321427156429e-01 7.657606683646172030e-01 1.680103986081855627e-01 6.173966923995229950e-01 6.308429848680431329e-01 7.185581215965419766e-02 6.227691515279363266e-01 5.701088666957937479e-01 5.618201977701746674e-01 4.708238799982757961e-01 5.408536621477606499e-01 4.125935933123141552e-01 9.560988904960541213e-01 2.032038428247345818e-01 4.373735520341389682e-01 9.415325816262987146e-01 9.929872092391824889e-01 6.412877999780105531e-01 1.195847949224176920e-01 7.181579899534751288e-01 6.295484103020703159e-01 1.254523725534224532e-01 1.980350417459475487e-01 7.347916294612230059e-01 9.934124062623826967e-01 4.813179262124301916e-01 2.268065564049396299e-01 1.052126347641015869e-01 8.475861479674892118e-01 5.402755644207595243e-01 6.174636371634286691e-01 9.350402865399368713e-01 5.017087013020414821e-01 7.107320488380376444e-01 2.250224566552516681e-01 1.600817175026048034e-02 7.366871144848426978e-01 1.125623632222548798e-01 1.655028360788634023e-01 8.260085202439787500e-01 8.012654883492631441e-01 7.246268094284901151e-01 4.633097843865108256e-01 5.506875807154933966e-01 2.699344423296171636e-01 5.422137879263613236e-01 1.446978130348894886e-01 2.744310628038613142e-01 8.249873080129883629e-01 6.768232658927497702e-02 5.669517929632760245e-01 6.494737352637813821e-02 9.826995421300838141e-01 7.038579785623894081e-01 6.294146941592084765e-01 5.406760560389891612e-01 7.210460215054581568e-01 5.893084548597496974e-01 2.682734070898116219e-01 9.071607526901698249e-01 4.270560550839975766e-01 9.698867636961553407e-01 5.282120515084242074e-01 7.763696653224798627e-01 7.040252352000524461e-01 5.640765041621852438e-01 2.360020334991820290e-01 3.631095848757862621e-01 5.370823050343365157e-01 5.094635557560289740e-02 8.378500815028242510e-01 1.076626543853392848e-01 8.405780311199777532e-01 4.972212212974206347e-01 6.562287950840157702e-01 8.131130469207251688e-01 5.460592517260276502e-01 1.576592852396478950e-01 9.274097038191015940e-01 4.612373438119921065e-01 5.711777175359877834e-02 9.613385153401491356e-01 5.354055582558026050e-01 3.058094456003500605e-01 9.095622833151357778e-01 2.353898797205619120e-01 9.694330547987167757e-01 1.856511891004331005e-03 5.895677709114587328e-01 7.890952774591185603e-01 8.254100225152043446e-01 9.143817029112886186e-01 1.846669090349972731e-01 1.906744701457746549e-01 8.672569121422818439e-01 7.038369987173253017e-01 4.052274606510722910e-01 3.439506949384087964e-01 7.469815908253109038e-01 4.302978490722052518e-01 9.465037156208042646e-01 4.356951901927763604e-02 3.154099586743543959e-01 3.667027998195095950e-01 1.734837071542754128e-01 9.749288848399760843e-01 4.330355145535523809e-01 3.641559906817181114e-01 1.744983061461036211e-01 5.134483901178220622e-01 1.011227732483876984e-01 7.125637826559118038e-01 2.008052875698096429e-01 7.739748257299483569e-01 3.249007541358068796e-01 1.163252202059832374e-01 3.497920667140421713e-01 8.193586134422647937e-02 7.221169857666140945e-01 8.233373367836226420e-01 2.758412484099015405e-01 9.618190576097318534e-02 5.007488422272774464e-01 3.842024570746099821e-01 8.087648159856835051e-01 3.052992391745326106e-01 7.013239542494986711e-01 3.803072125679083371e-01 3.136195736682577673e-01 8.335037313639147571e-01 9.896912180663710590e-01
5.225351075901155662e-01 6.753224158626829343e-01 6.306238492910057891e-01 7.532056086316619714e-01 2.957103874034167079e-01 6.770224392935182411e-01 5.558804805975675611e-01 6.850155970317342025e-01 1.605048369766345351e-01 8.136342987897904333e-02 3.128089676946554931e-03 8.513693838396962921e-01 8.783902908942856635e-01 6.407390291888259704e-02 8.876830747830132262e-01 5.391709962249857657e-01 2.399398026101138282e-01 3.627051289530315303e-01 4.843028364018435727e-01 9.312611192558838402e-01 8.298216718145279280e-02 8.663510065429180784e-02 4.502042093832402392e-01 3.776217762000110278e-01 3.982415214217538413e-01 6.351818391584529433e-01 7.091954123019185152e-01 5.547788411426659572e-01 6.881533235610813870e-01 2.985448303024450523e-01 5.103162519741533121e-02 7.207732180224599716e-01 8.761881670907912811e-01 2.356773242248997313e-01 9.382197313779605530e-02 8.579331389454876167e-01 1.278790490353087783e-01 6.826415507284349093e-01 8.738036367982462416e-01 4.745614015145638298e-02 4.461665319094560989e-01 9.527002878882107062e-01 2.094239566917378559e-01 6.741293127601462043e-01 7.286543467918814576e-01 7.049015008132674120e-01 2.530965712956967373e-03 8.349285904261415370e-01 9.489520220843700171e-01 5.349413481080321775e-01 9.373650896157967871e-01 1.492212830081390829e-01 1.692985148824672770e-01 1.001811553740235006e-01 4.674130778536954578e-01 8.673573840547386116e-01 7.902761451167021889e-01 3.160738962301742339e-01 3.187051983284561185e-02 2.798347349875279777e-01 4.964740190118184238e-01 4.959029450706363695e-01 6.963623435671368878e-01 3.733430976073478513e-01 2.953588476256284734e-01 7.018837582131485231e-01 1.290000160006266050e-02 7.387123892357462251e-01 8.028322589913672314e-01 6.930852048973638047e-01 5.222246771834415657e-02 3.369693535794687778e-01 9.797604144130672710e-01 4.236128419485684082e-01 1.986654692811051781e-02 3.378471127362383530e-01 4.872966964334357609e-01 3.550357076466034156e-01 6.181571468292980098e-01 2.384298808661192703e-01 1.239954283211567310e-01 9.092403302837088752e-01 4.872788694115309793e-01 9.608620983842227625e-01 8.499248810780647423e-01 4.341214328675961909e-01 4.029753701284866096e-02 1.820426672136745694e-01 3.227611645045214139e-02 6.891644839919930376e-02 8.913404104144735385e-01 6.524422405496512756e-01 6.121892065996163979e-01 3.427696849861349149e-01 8.416384064311909219e-01 3.863522204510633218e-01 7.147080608703227922e-01 2.644961492087944954e-01 8.344671961941758642e-01 9.159755904887342259e-01 1.875556557412767500e-01 4.958304131012107874e-01 9.133371253320886618e-01 7.339078402187323436e-01 2.606264429111075920e-01 3.692112020283340179e-01 8.019034481802839176e-01 5.301889802823431808e-01 4.471141036438954774e-01 9.835824504557278969e-01 9.581211993748917077e-02 7.509345738023311956e-01 9.407461862570701827e-01 1.825855527597056716e-01 1.506140253924709294e-01 5.046778501854358723e-01 9.413443664097447261e-01 1.634183485496328858e-01 2.815000243166007055e-01 6.206891494062793946e-02 5.814331523963001125e-02 1.315953593147892731e-01 3.902679601397061049e-01 1.399557190224836045e-01 3.024372140326040403e-01 4.503892621121682316e-01 5.423338252983090912e-01 8.050047158800702762e-01 7.776027715907930515e-01 4.882029699718876126e-01 7.893764429179370712e-01 5.557747729995489161e-01 6.598874728806272127e-01 1.784057804163688976e-01 4.533466931048880655e-01 8.500814752476969494e-01 1.248544550858958768e-01 4.018056570847972075e-02 4.606336927769039136e-02 9.591734364720135853e-01 9.444418960901300730e-01 2.162706179179466615e-01 4.738914886255095604e-01 3.255531117511022421e-01 3.561329665782669851e-01 3.092567690542199488e-01 4.434499597024909034e-01 8.132781184986894729e-01 9.133472894524726771e-01 2.838839521903618879e-01 8.149739050411133334e-01 3.907083009893657088e-01 2.637636154207193551e-01 7.956161202715809067e-01 7.354169680312585555e-01 7.575288081621228686e-01 5.687139451720381045e-01 4.930824538098830256e-01 3.351446752705977694e-01 3.468268298120905646e-01 1.753536607542083292e-01 3.923784594762729228e-01 8.472156800105343777e-01 2.363211878295371493e-01 5.179724940960659385e-01 8.668957518241946492e-01 4.653194412384297207e-01 9.994126063629875656e-01 5.471682065691263475e-02 4.756719762331119705e-01 4.309812854581680508e-01 5.622775268979498531e-01 7.338675741988438528e-01 1.097003192653227543e-01 9.327147716069390526e-01 2.095907648439799820e-01 7.585790197530817291e-01 4.796253127461717058e-01 3.723305787890646146e-01 8.907642455070210463e-01 8.309623335545927025e-01 6.452228451093090511e-01 5.295788824155556185e-01 7.470450966238270096e-01 6.978415694974560157e-02 4.357595577738399006e-01 9.050808815880873048e-02 6.738487731189938268e-01 2.575565723861457101e-01 1.384513939491609502e-01 1.957960761825290330e-01 8.763946347741792264e-01 4.105615963729368767e-01 4.595652475398500636e-01 8.692055184886403607e-01 3.975945140674297384e-02 9.519130589835136380e-01 1.287671624073574161e-01 2.252037536361559678e-01 2.189893774173149454e-01
6.635153112942493436e-01 3.711930540254896327e-01 1.610658420683268588e-01 2.777665475330308720e-01 5.297165139803212686e-01 8.561707075595392791e-02 9.047403575939272358e-02 1.687432294662880583e-01 5.384235639557801711e-01 9.113542174045179411e-01 4.136076411063948077e-01 3.988718088164151521e-01 1.886515361273618518e-01 8.656374640177227908e-01 5.804653809691640021e-01 8.984043753733019777e-01 1.317945115167418191e-01 3.108587915561522586e-02 6.661973077378882113e-01 3.316946158749919382e-01 3.277234227739465044e-01 3.578947715983357147e-01 5.291562452773721503e-01 5.349895745723758367e-01 4.135098651783183366e-01 5.299350576659412893e-01 4.957837965910786293e-01 1.851336092494569874e-01 9.101806490515869097e-01 2.386220449871179206e-01 6.841857978484322533e-01 6.639344025418730810e-01 2.538154364010023478e-01 7.616999175156289326e-01 5.833228031147672521e-01 5.414808493829209590e-01 8.555566777843359727e-01 1.563685127535470176e-01 8.850687655238580476e-01 8.837380343553851159e-01 1.077795172437513438e-01 1.795505804993809962e-01 4.632645175109946223e-01 8.956638067231669220e-01 5.335133953651171046e-01 5.144534047634541363e-02 4.280898022652153134e-01 9.094698713731305117e-01 4.636135528878754242e-01 8.610797033589697724e-01 3.353326409005530362e-02 8.200001528099511994e-01 9.619908224606201763e-01 3.774763616892179430e-01 2.975527699534009640e-01 3.208910436797902666e-01 5.126988275550524721e-01 9.412708965102521974e-01 9.210807986167252048e-01 7.828801323190146544e-01 3.620176207200518359e-01 3.936306921788509383e-01 1.697681236188903764e-01 9.401498574776380179e-01 5.084949903087704337e-01 3.571917936658323134e-01 4.795551725513179653e-01 7.219192116540414927e-01 9.218974939874794439e-01 7.472991280250275148e-01 7.365031175732170698e-01 7.727862959243991803e-01 5.421846877343500237e-01 1.533149441058347939e-01 6.659737673942054403e-01 3.472742205809224991e-01 4.742187834076236896e-01 4.436690234901249363e-01 4.844959812496565377e-01 6.967392735041544327e-03 9.503533851367521601e-01 3.089105036762935796e-01 4.791209623604315571e-01 5.339283777307602952e-01 8.671509860745845177e-01 7.282707101051552057e-01 6.630404990067039206e-01 4.963286269556259622e-01 4.606074228578793672e-01 1.004290769015973028e-01 9.374887700615768260e-01 8.354008417959629673e-01 1.498492689183953397e-01 9.889550804048186095e-02 3.664085756222719148e-01 9.562962156957212079e-01 3.179678314838429998e-01 1.895274756297005148e-02 2.876988415563949131e-01 6.439081735437668375e-01 4.800683385559748606e-01 8.016828502128829914e-01 7.822150191390863094e-01 3.566483780506749524e-01 1.555106214504862194e-01 7.597601255693603450e-01 9.150751799203881154e-01 8.266251067802491415e-01 6.233736880920405232e-01 3.837229599027547344e-02 4.849863528747375696e-01 8.197979250687479347e-01 4.957687680743061431e-01 9.527948547489184516e-01 6.986902117836987225e-01 8.044893780107875703e-01 7.244894755461208646e-01 2.033187943734807712e-01 6.190597034349720751e-01 6.369955515884230257e-01 2.066293069952700456e-01 7.553180795818875692e-01 1.229312133873552426e-01 1.265642856580101450e-01 5.526033763948735578e-01 3.018284965931037345e-01 1.702676364322064373e-02 8.672884962990482505e-01 9.594021227163723742e-01 1.549283424518151930e-01 3.369490392657614741e-02 1.493482034269235648e-01 9.652862072159740237e-01 8.672516214597690842e-01 4.978523071008121859e-01 4.108768507543947290e-02 6.909067421800346720e-01 7.117178758138504868e-01 6.236436768540382092e-01 7.091408411276475254e-01 5.912809404913300648e-01 7.466576564128821758e-01 3.471598805774620544e-01 5.000802446845693527e-01 4.086203333971749618e-01 2.175446302281462962e-01 7.798565442525399183e-01 2.010433334683258133e-01 8.560681733177333275e-01 9.930805257984218759e-01 7.977551642921201225e-01 8.741915584183870269e-01 9.635964634403089146e-01 8.999286239838663048e-01 3.041773361324773273e-02 2.398800326271821604e-03 7.458744518298277004e-02 2.958799355657741881e-01 8.649749041573756569e-01 5.447595095850666924e-01 7.466084054203545595e-01 7.887100809134303114e-01 1.854092978308216066e-01 7.885260827666389361e-01 6.730269513880834387e-01 6.540947089522954894e-01 1.337540072287525250e-01 4.075913168618432447e-01 6.993442782324349460e-01 6.674611582459978321e-01 4.145778045899868314e-01 5.710414137194481654e-01 1.403528511864048367e-01 5.835714036793494541e-01 9.390788861974040946e-01 1.594959846467930431e-01 2.907382455595175497e-02 4.114394587751093457e-01 1.554557536043782440e-01 9.307143869650031931e-01 8.903426033370400727e-01 7.378642144048730422e-02 7.785422246070686780e-01 7.513694253811409318e-01 6.766676497568848703e-01 9.851346020722221430e-01 2.774560411976194629e-01 4.168500700580746177e-02 2.638116436980383339e-01 5.623040485301978864e-01 2.670866490078132038e-01 8.305076021788765361e-01 1.811060920581195610e-01 7.696615727245845751e-01 7.584873492891642810e-01 4.220365526701760350e-01 5.641990121640494404e-02 7.254510190330728525e-01 2.329911128471192638e-01 3.291817888396678660e-01
