# 
#                 ----------------------------------------------------
#                 Data from a 3D direct N-body simulation. 
# 
#                 rows are i-particle; 
#                 coumns are :mass, tag, x ,y, z, vx, vy, vz, ax, ay, az
# 
#                 NTHU, Computational Physics 
# 
#                 ----------------------------------------------------
#                 Time = 0
0.000000000000000000e+00 1.000000000000000000e+00 2.000000000000000000e+00 3.000000000000000000e+00 4.000000000000000000e+00 5.000000000000000000e+00 6.000000000000000000e+00 7.000000000000000000e+00 8.000000000000000000e+00 9.000000000000000000e+00 1.000000000000000000e+01 1.100000000000000000e+01 1.200000000000000000e+01 1.300000000000000000e+01 1.400000000000000000e+01 1.500000000000000000e+01 1.600000000000000000e+01 1.700000000000000000e+01 1.800000000000000000e+01 1.900000000000000000e+01 2.000000000000000000e+01 2.100000000000000000e+01 2.200000000000000000e+01 2.300000000000000000e+01 2.400000000000000000e+01 2.500000000000000000e+01 2.600000000000000000e+01 2.700000000000000000e+01 2.800000000000000000e+01 2.900000000000000000e+01 3.000000000000000000e+01 3.100000000000000000e+01 3.200000000000000000e+01 3.300000000000000000e+01 3.400000000000000000e+01 3.500000000000000000e+01 3.600000000000000000e+01 3.700000000000000000e+01 3.800000000000000000e+01 3.900000000000000000e+01 4.000000000000000000e+01 4.100000000000000000e+01 4.200000000000000000e+01 4.300000000000000000e+01 4.400000000000000000e+01 4.500000000000000000e+01 4.600000000000000000e+01 4.700000000000000000e+01 4.800000000000000000e+01 4.900000000000000000e+01 5.000000000000000000e+01 5.100000000000000000e+01 5.200000000000000000e+01 5.300000000000000000e+01 5.400000000000000000e+01 5.500000000000000000e+01 5.600000000000000000e+01 5.700000000000000000e+01 5.800000000000000000e+01 5.900000000000000000e+01 6.000000000000000000e+01 6.100000000000000000e+01 6.200000000000000000e+01 6.300000000000000000e+01 6.400000000000000000e+01 6.500000000000000000e+01 6.600000000000000000e+01 6.700000000000000000e+01 6.800000000000000000e+01 6.900000000000000000e+01 7.000000000000000000e+01 7.100000000000000000e+01 7.200000000000000000e+01 7.300000000000000000e+01 7.400000000000000000e+01 7.500000000000000000e+01 7.600000000000000000e+01 7.700000000000000000e+01 7.800000000000000000e+01 7.900000000000000000e+01 8.000000000000000000e+01 8.100000000000000000e+01 8.200000000000000000e+01 8.300000000000000000e+01 8.400000000000000000e+01 8.500000000000000000e+01 8.600000000000000000e+01 8.700000000000000000e+01 8.800000000000000000e+01 8.900000000000000000e+01 9.000000000000000000e+01 9.100000000000000000e+01 9.200000000000000000e+01 9.300000000000000000e+01 9.400000000000000000e+01 9.500000000000000000e+01 9.600000000000000000e+01 9.700000000000000000e+01 9.800000000000000000e+01 9.900000000000000000e+01 1.000000000000000000e+02 1.010000000000000000e+02 1.020000000000000000e+02 1.030000000000000000e+02 1.040000000000000000e+02 1.050000000000000000e+02 1.060000000000000000e+02 1.070000000000000000e+02 1.080000000000000000e+02 1.090000000000000000e+02 1.100000000000000000e+02 1.110000000000000000e+02 1.120000000000000000e+02 1.130000000000000000e+02 1.140000000000000000e+02 1.150000000000000000e+02 1.160000000000000000e+02 1.170000000000000000e+02 1.180000000000000000e+02 1.190000000000000000e+02
1.000000000000000000e+00 1.000000000000000000e+00 1.000000000000000000e+00 1.000000000000000000e+00 1.000000000000000000e+00 1.000000000000000000e+00 1.000000000000000000e+00 1.000000000000000000e+00 1.000000000000000000e+00 1.000000000000000000e+00 1.000000000000000000e+00 1.000000000000000000e+00 1.000000000000000000e+00 1.000000000000000000e+00 1.000000000000000000e+00 1.000000000000000000e+00 1.000000000000000000e+00 1.000000000000000000e+00 1.000000000000000000e+00 1.000000000000000000e+00 1.000000000000000000e+00 1.000000000000000000e+00 1.000000000000000000e+00 1.000000000000000000e+00 1.000000000000000000e+00 1.000000000000000000e+00 1.000000000000000000e+00 1.000000000000000000e+00 1.000000000000000000e+00 1.000000000000000000e+00 1.000000000000000000e+00 1.000000000000000000e+00 1.000000000000000000e+00 1.000000000000000000e+00 1.000000000000000000e+00 1.000000000000000000e+00 1.000000000000000000e+00 1.000000000000000000e+00 1.000000000000000000e+00 1.000000000000000000e+00 1.000000000000000000e+00 1.000000000000000000e+00 1.000000000000000000e+00 1.000000000000000000e+00 1.000000000000000000e+00 1.000000000000000000e+00 1.000000000000000000e+00 1.000000000000000000e+00 1.000000000000000000e+00 1.000000000000000000e+00 1.000000000000000000e+00 1.000000000000000000e+00 1.000000000000000000e+00 1.000000000000000000e+00 1.000000000000000000e+00 1.000000000000000000e+00 1.000000000000000000e+00 1.000000000000000000e+00 1.000000000000000000e+00 1.000000000000000000e+00 1.000000000000000000e+00 1.000000000000000000e+00 1.000000000000000000e+00 1.000000000000000000e+00 1.000000000000000000e+00 1.000000000000000000e+00 1.000000000000000000e+00 1.000000000000000000e+00 1.000000000000000000e+00 1.000000000000000000e+00 1.000000000000000000e+00 1.000000000000000000e+00 1.000000000000000000e+00 1.000000000000000000e+00 1.000000000000000000e+00 1.000000000000000000e+00 1.000000000000000000e+00 1.000000000000000000e+00 1.000000000000000000e+00 1.000000000000000000e+00 1.000000000000000000e+00 1.000000000000000000e+00 1.000000000000000000e+00 1.000000000000000000e+00 1.000000000000000000e+00 1.000000000000000000e+00 1.000000000000000000e+00 1.000000000000000000e+00 1.000000000000000000e+00 1.000000000000000000e+00 1.000000000000000000e+00 1.000000000000000000e+00 1.000000000000000000e+00 1.000000000000000000e+00 1.000000000000000000e+00 1.000000000000000000e+00 1.000000000000000000e+00 1.000000000000000000e+00 1.000000000000000000e+00 1.000000000000000000e+00 1.000000000000000000e+00 1.000000000000000000e+00 1.000000000000000000e+00 1.000000000000000000e+00 1.000000000000000000e+00 1.000000000000000000e+00 1.000000000000000000e+00 1.000000000000000000e+00 1.000000000000000000e+00 1.000000000000000000e+00 1.000000000000000000e+00 1.000000000000000000e+00 1.000000000000000000e+00 1.000000000000000000e+00 1.000000000000000000e+00 1.000000000000000000e+00 1.000000000000000000e+00 1.000000000000000000e+00 1.000000000000000000e+00 1.000000000000000000e+00
5.695345417147266165e-01 4.543561799947003488e-01 5.282175130503241611e-02 2.418066401319548531e-01 2.795524039162720076e-01 6.363230163413321483e-01 4.559214789099103049e-01 7.375712324140037968e-01 4.518972862193165740e-01 4.855142761112795080e-01 8.503604776072398730e-01 6.442858291519953928e-01 5.575457510836223651e-02 8.808194581864998707e-01 9.540091046593456303e-01 8.227302799817844958e-01 8.330545105603690548e-01 3.549387456258690232e-02 1.586292128409583224e-01 1.217728017283135067e-01 3.369160779142477136e-02 2.385805805188856432e-01 8.840669595743967379e-01 9.040208219594765282e-01 2.319104294763796315e-02 3.797655408069657845e-01 8.912537515335710037e-01 6.592270239509012697e-02 9.358414216967294585e-01 5.625023918457329186e-01 7.657996094107369922e-01 7.279056963665573310e-01 2.789500026236492181e-01 2.874357259493963701e-01 5.116604196865430776e-01 1.496006912073756245e-01 1.997256577853580017e-01 6.479950572048095436e-01 4.234346045377906931e-01 2.922430512551864590e-01 4.329382991766250743e-01 4.409542717639138854e-01 8.741680608145351306e-01 4.072548053507961674e-01 1.297919613819781270e-01 8.647427310950395185e-02 1.946589132202393158e-01 2.246264194389369084e-01 7.298389681974533083e-01 5.938681613456634478e-01 1.383833540488281777e-01 6.650020813338942682e-01 1.434230698713339081e-01 4.932237447351923709e-01 7.790722658251847399e-01 6.061396873032203203e-01 3.295673239654999254e-01 2.133070365104172694e-01 3.820015357415545987e-01 7.776255050683068548e-01 6.920967513617565237e-01 6.983093790708664317e-01 2.516766453779120116e-01 3.368133372227994915e-01 7.501996022908661299e-01 7.164129178292315547e-01 9.916530886778769371e-01 2.554389357236874769e-01 8.005973871089765437e-01 9.229178407585788557e-01 8.713679447323455785e-01 2.941898947064612857e-01 6.811304868547470859e-01 4.162496608324376401e-01 5.900597424493758680e-02 7.963664606471229090e-01 3.044049203460438280e-01 4.483277200698965181e-02 8.329965753190561317e-01 4.171855782282949399e-01 1.228321284413080861e-02 8.282561535960581978e-01 2.617417973216658034e-01 6.557623111919197445e-01 3.865967837160001475e-01 6.666014023451135584e-01 4.840838321896219210e-01 7.876164855975266166e-01 3.509401849340050283e-01 5.441226363207526395e-01 9.321419621711398706e-01 2.812148384187908023e-01 8.328470342128407866e-01 2.090662951342777687e-01 2.063633544163377964e-01 4.042467425024276473e-01 6.248681650620387940e-01 7.615190485052258929e-01 2.564852014330099017e-01 6.735159443461787854e-01 1.211828102321403922e-01 2.592605092021279534e-01 9.949541425003888273e-01 7.464693454739076417e-01 6.875502447800692085e-01 4.536520625977792376e-01 4.583002111533905909e-01 2.704143235136453605e-01 2.060232565961125362e-01 8.515658381412438693e-01 6.963717302525616049e-01 8.886497269089851381e-01 6.424338583767245092e-01 5.148345134965829351e-01 4.743008920249919269e-01 3.491660685439184064e-01 6.750749866126111165e-01 2.932759396852480105e-01 5.564844920408790196e-01 2.495359333577089611e-01
6.734407967356804692e-01 4.918385645871818923e-01 7.951157713105718727e-01 5.162182713078800056e-02 5.673624652188277162e-01 3.496123960382857554e-02 3.321419018780892296e-01 7.560577185552682655e-01 1.082802897867352065e-02 3.807547398447965747e-01 6.657315621497768010e-01 4.770201828694563551e-01 3.889575044130210157e-01 7.228612017985498461e-01 8.480319579454365098e-02 9.935405582952283599e-02 3.793187454674223913e-01 3.882646908401027330e-01 4.311612945940638264e-01 2.319691705315896080e-01 9.861912660601229730e-01 7.212836076186132095e-01 4.210202424003099964e-01 3.243648681191649841e-01 3.168776855565521577e-01 6.054488667285189418e-01 1.274076775730319522e-01 4.477535408635633374e-01 2.208889468820041113e-01 4.439476044352943518e-01 8.516862745118560785e-01 4.449245997191928481e-01 8.349644112775969074e-01 5.903040235496457289e-01 9.661690648180767393e-01 7.533705089873605765e-01 8.542078590585372444e-01 5.500487755175035298e-01 9.629807447974765289e-01 2.126708729071966619e-01 4.507015588765445058e-01 3.571143202423652241e-01 6.397782040987732843e-01 7.534435267526757851e-01 9.269057879454190019e-01 7.271124712803516132e-01 2.358811024182640992e-01 6.667382138184828611e-01 8.830147833742962860e-01 7.077415643851305838e-01 2.759798590313695676e-01 3.247710116626358889e-01 8.077264973494936440e-01 3.778941457101991919e-02 9.997308769966268827e-01 2.513098401197912946e-01 2.792327741859919055e-01 3.695255289082588490e-02 4.659857353297480742e-02 2.084958363533951919e-01 1.601371837561906819e-01 9.712774885117747559e-01 2.797305463018299188e-01 7.729846817381303969e-01 3.255421441897713430e-01 3.187148434638787942e-01 4.542656673651378485e-01 1.853247663342224572e-01 9.291761167862376825e-01 4.491194210272418941e-01 5.527309725871091262e-01 3.873629000911444908e-01 2.026833925025595118e-01 4.849744387385340749e-01 1.067341282648129885e-01 4.785277794792731632e-01 7.613847403811436765e-01 8.601226548261197147e-01 6.585190310413032710e-01 1.916600041969100943e-01 4.943114819845736418e-01 2.245497490597323509e-01 7.508757640541041667e-03 6.227555316962358756e-01 3.441319754919721641e-01 1.519077377219992808e-01 4.565338685339846991e-01 6.540128124980654212e-01 2.639652457280349251e-01 1.148001994122497260e-01 7.728945529974173834e-01 1.462272901571863848e-01 2.913896845970903593e-01 5.701027830698724985e-01 8.139006516383923140e-01 4.111752525594341012e-01 3.531928776289130489e-01 3.847201280959645642e-01 8.105775478089392028e-01 1.051356480465307497e-01 5.741592950642733229e-01 9.019158322170471864e-01 2.328327487722843259e-01 8.400999831570402643e-01 8.130924339164443682e-01 2.049686811464409564e-01 5.802380157298254737e-01 8.810803364235830770e-02 2.086687394756782110e-01 2.699982559815470307e-01 6.605943644940591719e-01 6.579194502608536332e-01 9.402773616213797592e-01 2.473043665172897088e-01 1.302407840192882915e-01 1.313855855833667707e-02 8.978717227929429168e-01 6.041225230439982719e-01 1.290133306890069997e-01 5.325327962812154148e-03
6.998998857014190333e-01 6.219979963845794213e-01 9.527884851610559647e-01 8.377353632027331187e-01 2.261826810901246265e-01 9.004042811793618872e-01 5.155549933994224565e-01 5.164819896182599734e-01 6.840338108755494861e-01 4.679614992141151175e-01 8.375643553608239644e-01 8.445797567597426170e-01 5.771069457751123455e-01 6.168028970892787122e-01 9.297472748673427656e-01 4.452804219642780836e-01 4.862494948412318108e-01 4.064803722687246879e-01 4.440541166433058518e-01 6.053437663353671283e-01 4.273359700149598206e-01 1.656528320973356116e-01 3.392382299642325849e-01 8.016679867494724832e-01 1.570743839132205943e-01 4.540576385206142040e-01 7.412107893762470701e-01 8.425496892530842663e-01 8.687250338789497262e-01 6.463196203839961518e-01 8.495110414943560784e-01 7.686649988230812580e-01 1.168309400991898173e-01 1.556491101363911556e-01 3.572168470212468971e-01 7.336941791940276847e-01 7.382928963986971072e-01 1.176375631055283089e-01 8.417279150941924248e-01 7.330389623792235021e-01 5.772366838311788761e-01 6.986208986053508152e-01 7.800994137201665568e-01 2.580251720446906649e-01 6.064691834101866297e-01 9.858275202091584255e-01 2.910903105170309368e-01 2.805943499951029096e-01 3.112465202516463414e-01 6.219946762507572169e-01 4.851801917090122762e-01 2.921390140376017852e-01 5.834542329065188770e-01 2.987423169857011951e-01 7.477825580126298277e-01 4.454979605922770869e-02 4.828435929341072796e-01 2.575876382986399538e-01 8.899119098270773520e-01 4.226694854190220507e-01 6.027936944235554595e-01 5.630769757157974009e-01 6.135987315447670731e-01 9.319395410094279963e-01 7.275643748389094556e-01 6.329014344673074000e-01 9.627537612478931361e-02 6.611980899775022902e-01 1.252693700753327866e-01 2.892560306674597514e-01 5.070615993841076641e-01 2.609344729782738792e-01 1.724497821070131165e-01 5.584801429962678032e-01 5.255142640668847287e-01 4.498704790638214934e-01 8.159809342785870889e-01 6.989148322578659922e-01 8.036665961587875495e-01 4.579628309026095856e-02 2.300173070062838665e-02 4.420875507798917026e-01 8.057259113311202592e-01 4.575695867801016226e-01 4.227546383015369225e-01 1.148439428402127094e-01 8.314181099721967838e-01 4.352742633691019103e-01 2.215996898899641465e-01 9.281481542339776736e-01 5.486109286659887063e-01 4.981642677463804514e-02 2.712069242922096057e-01 3.635333081346064921e-01 9.632586871977993903e-01 4.616631239774515727e-03 5.037105281553130309e-01 4.461242770055687812e-01 2.315934112148074764e-01 3.656204312228833464e-01 7.110066598701347829e-01 4.505620449716746245e-01 1.774406531914645146e-01 6.835583015205697333e-01 5.421710358193787549e-01 4.567292365814468180e-01 3.646123236418208347e-02 2.832251956497341405e-01 9.111677509102596995e-01 9.904980771736472400e-01 2.255078530195090414e-01 1.997928541610702879e-01 2.951115265843730073e-01 1.981863442389023566e-01 7.025557488809106577e-01 8.288164164096089026e-01 9.941859037514926278e-01 1.493881373347050179e-02 7.632978073258980256e-01 4.275629233214237601e-01
2.193654388886837614e-01 8.795836563273373709e-02 5.947740524752762603e-01 8.844260290684139436e-01 4.301397590213158484e-01 7.971388576241885682e-01 2.210946999147985759e-01 3.008032772704997138e-01 6.428168202029823641e-01 1.567142238008212285e-02 3.450130751359741232e-01 7.100806630661097296e-01 7.316301174007167063e-03 9.082202971729209651e-01 9.450589025624789308e-01 6.439285556852064607e-01 4.874234371696691825e-01 2.185360668493110392e-01 6.731006715205017921e-01 7.620480060161305413e-02 8.403401062909400254e-01 8.455605850048952821e-01 6.394058123057855259e-02 3.004346134776263444e-01 8.072932695364523070e-01 5.003517275724489455e-01 6.769449668752605120e-01 1.872148549421045471e-01 7.475592517784529489e-01 8.108162386133377364e-01 4.044837359072589456e-01 9.083450389737051101e-01 6.361654254431337030e-01 5.657379908099797738e-01 1.654287966800843668e-01 2.028620449250915225e-01 3.041063742962579752e-02 2.291008984130563642e-01 1.073253942838245933e-01 8.446431245657861631e-01 4.342794355642229931e-01 7.546510241359396520e-01 9.602997519708931229e-01 4.352500337358108373e-01 8.209439534894007462e-01 5.539206943319029408e-01 9.526170011046096731e-01 2.440454257526974979e-01 5.658544775251730385e-01 2.947956029710763204e-04 1.459167206163544117e-01 6.258037351000375059e-01 3.918881273785571606e-01 7.462377100325903179e-01 2.014859235653452263e-01 7.153497710557383815e-01 3.990785094952006284e-01 7.117933060038580395e-01 4.756035575177792740e-01 2.662285963779894571e-01 2.571336797452200562e-01 6.871893780750374381e-01 1.851985562299273136e-01 8.772718518403326282e-01 9.204415966821355433e-01 5.907521995055474706e-01 8.917425209695382105e-01 8.246960496534821994e-01 8.091588537972789208e-01 1.423202780809583734e-01 4.977443087596564730e-01 2.141789759570696949e-01 8.689338083786923850e-01 6.736330912976917773e-02 5.043174431901055188e-01 4.038689507942355705e-01 4.106445466161836588e-01 5.255334608703214894e-01 5.714091879057969781e-01 3.059882991689422127e-02 3.747153612239941811e-01 3.064534746567447732e-01 3.578212155677035211e-01 8.739231212343164801e-01 4.111867344307889027e-01 6.812483079419361376e-01 6.881313762878138451e-01 7.799354185478816204e-01 1.306174193279157070e-01 7.417876204992267519e-01 4.654721759843697404e-01 9.913188004641969586e-01 9.395776716398829276e-01 5.053816758513182128e-01 4.192050132122715489e-01 7.918498402296276772e-01 8.999779638594054276e-01 3.859929642043863351e-01 1.231224743076297923e-01 1.412466500805245051e-01 6.247579113374251980e-01 2.960812951786574443e-01 2.770266582752983764e-01 1.294854717212438056e-01 2.933232599356740966e-01 4.013680956126253196e-01 2.457933186320372387e-01 3.092818702329023228e-01 1.534075886041238457e-01 7.493246758526187490e-01 3.715666196117624054e-01 2.812299533951084785e-01 6.503027243903526378e-01 1.301311603068406875e-01 5.125115455825647315e-01 4.859186151646450735e-01 9.121616486649994915e-01 1.828351313601269679e-01 8.818417406176781714e-02 4.738998595907684130e-02
2.264217103339219994e-01 7.462483453581367776e-01 2.090329665805962245e-01 3.824541729309306470e-01 8.036333738930800941e-01 7.712606885476805951e-01 6.626861749094157261e-01 4.060609826117015375e-01 5.262609326029208390e-01 7.498594321950995401e-01 9.972701341666150299e-01 8.534962629577746984e-02 5.633373570787114648e-01 4.791279458943962233e-01 6.827200172227924080e-01 6.347117101299187825e-01 4.800711273631911302e-01 4.215394628190493043e-01 1.734505765597159632e-01 5.208014580644075853e-01 4.844520729371926127e-01 1.304604197395732301e-01 2.467314537408457076e-01 5.442617995945358000e-01 6.583846284837766571e-01 2.478667822255464781e-01 3.321658272021010827e-02 5.106811117569295400e-01 6.381922961115641391e-01 4.635278195584647820e-01 4.694757530129434198e-01 8.260876883926648873e-01 7.351720830848352817e-01 3.726378889986383669e-01 3.600160553594341506e-01 3.786939385603450559e-01 4.202753601614347412e-01 7.639654572717932135e-01 7.556206150913792330e-01 4.376731417369813526e-01 6.038285969225374306e-01 9.304603689634297625e-01 7.802084974664681427e-01 5.378727381738696023e-01 9.797748789367631828e-01 2.067474283737935625e-01 3.318149865801379717e-01 1.771134863749769250e-01 7.634476011415731733e-01 6.664702680647899280e-01 6.375057142906725982e-01 8.506853166658299159e-01 5.921731624549694262e-01 2.820684401039196265e-01 1.813220382837138489e-01 3.522271520898545560e-02 1.049437639892114582e-01 5.160627850836947417e-01 4.297680203597098458e-02 7.281409839354524571e-02 9.861308424344793488e-01 5.212072258445132888e-02 2.967284154406231167e-01 4.749486162250493582e-01 6.351199373509962554e-01 9.031623950140897916e-01 9.251661854867189172e-01 1.139122194542858679e-01 8.166189429088783758e-01 3.217106733053565204e-01 1.489447015816880437e-02 1.881290563174196073e-01 5.536906435570734253e-01 4.811463932864709081e-01 9.205515090948810375e-01 9.425623081036210715e-01 4.359295129301603566e-01 5.861742115332811975e-01 2.657974069914128545e-01 6.612479242777979938e-01 3.930115581171075290e-01 5.036028420679552475e-01 1.229323374319747364e-01 2.680061081337651308e-01 6.817358171469303230e-01 1.255956241747360203e-01 5.966248770875137719e-01 7.226136163773879684e-01 7.558046400287838917e-01 1.999988598661773809e-01 9.924030560396149836e-01 6.818256386838367211e-01 6.548584619285662267e-01 4.247612039766113234e-02 2.855604980621715416e-01 9.755478516743113504e-01 2.042608847985012410e-01 7.970992974441826195e-01 6.126790439828684320e-01 6.968901994197007621e-01 5.367746581027943442e-01 7.402559139934230537e-01 3.731763798942694388e-01 2.681413221866481011e-01 3.787265952656665435e-01 7.002582078229602214e-01 3.276771569673218032e-01 1.556104100487361031e-01 9.164220037299537491e-01 5.950397583687211389e-01 6.753667659222439834e-02 8.124639092951790875e-01 4.580790443390025946e-02 9.949578102242531141e-01 2.135226139776970067e-01 3.904416395488617963e-01 2.563025151944385849e-01 3.539691843300269980e-01 3.475251984111550341e-01 6.492568283973728649e-01
6.319774022895030541e-02 2.283574530031655669e-01 3.524532163746447733e-01 2.143911709614123584e-01 8.133323005849961707e-01 5.697575440624674803e-01 7.192318537107152965e-01 3.426962899842157517e-01 7.528189045955029357e-01 6.742074525397862006e-01 2.576901512939833161e-02 2.291059728388266103e-01 5.008524305494710394e-01 7.379757763463387077e-01 5.266622068315184313e-01 9.636344464052175596e-01 6.810324106305821745e-01 2.248790592699980717e-01 4.581601735443303625e-01 2.220528669970345259e-01 1.062905272822032288e-01 3.753112051169780194e-01 3.212028204393871933e-01 7.889365194776439827e-01 3.310160637171062348e-01 4.314318366541606276e-01 1.937121165719724036e-01 9.752189938408478698e-01 7.474575025194606370e-01 6.001208380509139850e-01 3.454234222132214205e-01 2.702640318462428137e-01 6.546639532443353504e-01 8.018755588104705678e-01 2.737048103648807018e-01 6.220668709281460540e-01 4.529519933840102652e-01 1.116916549725565089e-01 6.281183699630987771e-02 2.998611256951685400e-01 1.373490047586654050e-01 8.645303051676662687e-01 4.038269142384128818e-01 7.013913877825872500e-01 7.613643099010863891e-01 1.462885031905608590e-01 7.606237328845448786e-01 8.923047131370871465e-01 9.744709354500254994e-01 7.932412856899707654e-01 2.702902330460248415e-01 2.993534492447900153e-01 8.819918613605126634e-02 4.730049293312806880e-01 6.318092890683543184e-01 6.154725284418682829e-02 5.907706616317074388e-01 2.044913865706605716e-01 9.576115986616678954e-01 6.795598327823294538e-01 1.139103027989329942e-01 5.338499380282540896e-01 6.094516748034173315e-02 6.986375188558702209e-02 8.346791288927544183e-01 4.711634945979741307e-01 1.307796850296163438e-01 1.446741898739255516e-01 7.311002298634422525e-01 5.373855154053559513e-01 3.963366453433444514e-01 1.164853421522106247e-01 2.107579926141808224e-01 9.635364061471642927e-01 1.204222681756430546e-01 4.318730425904678816e-01 5.687624577582180985e-01 6.959772998066299232e-01 6.473771252804706444e-01 4.707045660972321022e-01 7.878715660611951277e-01 3.893145777084425774e-01 5.544798218129286527e-01 4.956193431866962040e-01 9.526767223800236550e-01 4.740543852009257986e-01 2.399082932959578640e-01 7.166264812159983677e-01 3.526603544271318391e-01 3.101911966480146443e-01 3.006180568528908914e-01 5.547629268659988178e-01 4.701838406041536356e-02 3.459762122849505683e-01 7.534108985305898454e-01 1.565065962983747117e-02 5.948027340476362834e-01 5.882693432947447842e-01 6.410522844656282304e-01 9.395272477238354458e-01 3.037087717533585307e-01 2.966298665802737933e-01 6.558549866750690294e-01 1.009884037719435135e-01 9.590842510583899028e-01 2.881289571634174651e-01 2.734936873725946072e-02 6.143628308617299361e-01 7.208656361251812861e-01 2.514135599700829671e-01 9.340290469449458177e-01 2.662942012235876010e-01 3.128473989751596740e-01 3.820930056713706113e-01 8.863469136885205879e-01 1.687589299690717137e-01 8.074064555082360872e-01 5.424345499813145732e-01 3.763345584826938151e-01 1.160936351931574073e-01
4.247333077980181004e-01 7.625513048967028640e-01 2.389000142174325658e-01 5.948659363239366948e-01 2.194981744094944842e-01 7.204086076665445759e-01 8.137074097255052596e-01 2.509282664108472005e-01 1.129177823323717078e-01 2.048172422836884721e-01 9.028499258692623819e-02 5.149444398088116603e-01 3.103721382958444241e-01 1.419580751569764487e-01 2.491492143103541945e-01 2.196293428855722318e-01 1.260957750495010909e-01 7.044677145215851866e-01 2.870382122759155274e-01 4.815878836491970238e-01 8.387937889987462370e-01 6.602748918267936640e-01 8.929306930302348677e-01 4.008950290639281544e-01 9.586466018076869045e-01 3.516423885319954756e-01 9.760497162964260065e-01 2.494877183481761795e-01 9.163952778661069720e-01 1.848540257090081074e-02 9.120414537825336510e-01 4.174946369256465895e-01 7.870037267111754664e-01 7.699374804047676157e-01 7.289169259352411556e-01 3.057638327734168993e-02 6.429596113935043267e-01 6.542445603591469094e-01 7.234164900239121732e-01 8.251861602488793634e-01 1.257489715720547796e-01 9.741969255560537500e-01 7.631570539383056850e-01 3.688506984642213604e-01 1.515377718087740355e-02 4.757174014664481421e-01 3.927176947195742951e-01 4.421806473043288221e-01 3.823168401433880703e-01 8.662597388475355986e-01 9.200752325606476045e-02 5.040049819562033573e-01 1.821315349626932978e-01 1.341506295952481498e-01 7.781716933927892432e-01 3.281540152866463389e-01 8.855686603197820972e-02 8.992116030067593968e-01 3.113795897832725146e-01 8.269381267300955907e-01 5.178748440612290782e-01 9.104319742924971148e-01 4.639180645678453452e-02 5.293055353446608491e-01 3.774411082607072032e-01 9.027707325498250945e-01 8.881001678603921423e-01 4.212933474723563609e-01 3.663152210113004292e-01 9.342788655758883509e-01 1.693021537942437371e-01 3.851307200906384232e-02 3.960419732074957899e-01 6.754327788465068760e-01 7.772735744779152300e-01 2.172600350725700791e-01 8.283441067013632697e-01 9.665948597600302339e-01 6.738413739435755723e-02 8.336539270493207310e-01 9.003071495968090199e-01 5.433021269437127154e-01 4.529813658808976573e-01 2.022581207770259848e-01 3.160641322801786002e-01 8.152580666995491443e-01 8.217724121472037568e-01 7.659032906173879329e-02 2.417547540020458241e-01 3.354745503579098509e-01 6.733640049196099042e-02 3.556562315414851794e-01 8.561329965216766258e-01 8.179785943434634277e-01 3.166739706681899191e-01 1.867384923007830988e-01 5.383650374352754175e-01 1.134170307354228635e-01 6.253284855419127819e-02 9.094842078971632215e-01 7.049396261246233530e-01 2.157655914861240642e-01 5.431962267381355014e-01 4.347194168693651051e-01 2.759295718962865296e-01 2.869119760194165369e-01 2.238157767843473867e-02 7.785292627855527892e-01 1.919184038861616592e-01 8.783227359781106136e-01 5.033884142499877035e-01 2.606299561029947753e-01 4.054419287070775146e-01 3.256592876780766144e-01 5.632561608135242537e-01 6.457471922962094713e-01 9.644674428565356283e-01 1.371379288827556664e-01 5.619813691733017702e-01 3.307470328581346708e-01
6.046834632048392333e-01 9.833500638270169514e-01 5.698636575800222204e-01 8.491862161336949377e-02 9.382218374847900444e-01 3.004935885965946962e-01 2.669024065026883719e-01 6.331362334021279903e-01 3.185594345623776746e-01 5.286662512301834038e-01 7.716446844799673688e-01 5.093948919028501443e-01 2.642291838819343930e-02 5.469453187249758708e-01 3.024710135902493047e-01 4.042341039207884013e-01 9.554035174529362795e-01 7.078943969052113871e-01 7.855704630150682766e-01 1.579631976053074149e-01 9.934963493089270514e-01 8.193188585975204052e-01 7.206547421273089560e-01 1.701561376991799213e-01 8.556024070558982952e-01 6.172847543196314790e-01 4.778940074959799889e-01 6.164493801031125653e-01 6.015380071602717260e-01 6.542265222177460204e-01 7.364122726512453143e-01 5.305517709794533854e-01 2.114691504085479679e-01 4.396945884908095570e-01 3.323945979813680562e-01 7.136061703497031949e-01 5.489605082002084746e-01 1.135457212828695495e-01 1.538161690206135690e-01 1.092887263879094295e-01 4.271560172580809445e-01 6.681935026421251811e-01 8.540657788746703893e-01 7.504834166660587780e-01 9.807438171310065567e-01 9.029361363735107782e-01 4.900814227948235846e-02 6.061833038271889906e-01 9.928204875039936539e-02 9.922772998002203915e-01 1.869323875067174789e-01 1.316475382437409802e-02 5.091567067184092910e-01 7.242678212918045588e-01 1.882791015032583282e-01 7.964088715506423277e-01 8.884249003456541338e-01 1.877301542072588036e-01 8.502290008207527006e-01 2.624785565552991695e-01 6.824548737307831736e-01 5.801410424136721478e-01 3.616497529664630672e-01 9.060775603293108604e-01 1.215146839519557487e-01 1.943342173267649242e-01 6.360732508071148539e-01 8.208465001809768236e-01 5.267519248294968426e-01 9.665472538644548361e-01 2.688451877202472362e-01 6.755130985969667323e-01 9.424329172177043912e-01 7.397296201064340604e-01 2.920968279426621184e-01 3.437751773645941755e-01 3.249918183481689260e-01 3.361650954133432734e-01 1.493463758081021719e-01 3.686911815837035089e-01 3.335401518536600385e-01 1.195423792599064061e-01 5.543358606750082851e-01 8.705864140567940446e-01 8.380713308177141219e-01 1.613223282747872078e-01 6.413598749052179526e-01 5.428787003448176662e-03 3.262606998549967274e-01 2.387318371717884746e-01 1.172633702296854707e-01 3.328149769578695460e-01 9.573834169001176342e-01 6.374966234264174414e-01 3.318023851282436709e-02 7.824023834900681873e-01 4.593835984211930290e-01 3.891510098199617573e-01 2.569683086872647237e-01 1.226354450508843064e-01 5.639054399002066953e-01 7.127091132373556404e-01 8.329190780745143741e-02 1.157598922205781422e-01 2.259929514487077906e-01 4.649282390287620137e-01 4.789087101978338756e-01 2.617483742135812141e-01 3.216146365812030394e-01 3.586763693896104499e-01 4.806698073423201212e-01 3.281089485984561849e-01 4.920389774147319040e-01 7.091255516365606582e-01 8.550975552248492040e-01 4.135091286565887314e-01 9.331222412091141338e-01 4.754282163831321517e-01 1.080560647469460678e-01 9.141923956406626806e-01
4.706618103843110967e-01 8.408878213515935673e-02 3.024467643551631557e-01 6.816724019320600236e-01 4.594204610957617341e-01 4.076145883129135283e-01 2.447587885875255331e-01 2.724343948958534156e-01 7.686555128659021685e-01 2.687452232339903047e-01 9.141258034444513791e-01 6.520487897215079265e-01 5.575771695315340226e-01 3.067761965940346558e-01 7.517563222909455778e-01 9.803417328140419107e-01 5.551553111959204312e-01 2.713448146466309607e-01 2.153848980152037740e-01 6.513869758589866388e-01 3.942493019830060064e-01 6.239253803929063480e-01 2.986725887703542970e-01 3.028406387661505272e-01 6.278368080121042860e-01 8.577517943463096595e-01 6.497926230960948679e-01 9.878147351923483033e-01 8.272119928337762218e-02 9.483747669031562522e-01 8.859873586678190804e-01 9.333661481817895345e-01 9.984488937768321026e-01 7.652095501984873538e-01 8.390762961255247010e-01 9.240868422092416434e-01 9.421943094004486818e-01 8.764626781676562173e-01 1.378721243343949965e-01 7.907153663108807962e-01 7.404448346035704676e-01 9.019073723471225934e-01 8.781139748827171410e-01 1.505392566662737686e-01 7.921965836661556404e-01 9.949811373676026305e-01 2.528876395485226691e-01 6.597899141629921527e-01 3.913264751783409601e-01 4.113171930329673209e-01 2.203646700097523503e-01 7.479007717308935321e-01 4.000041714026936202e-01 2.161699519506253830e-01 1.289981926360508346e-01 2.144087039431255004e-01 2.798895172084036043e-01 9.908338205279516586e-01 3.417644947366234032e-01 8.587943683142373885e-01 6.037624366817102572e-01 5.669284942530599114e-01 9.005079440690471060e-01 2.718819503369119817e-01 6.266641629047235984e-01 3.648009606205506739e-01 7.247127577382272978e-01 7.902822859837023151e-01 4.263778533834025053e-01 5.738085421372626227e-01 1.963598709715685953e-02 7.269198097001765557e-01 9.547482982003620000e-01 1.426372358980416699e-01 2.346230588865250155e-02 4.172542309151431317e-01 1.172133739456004964e-02 1.288410252064141615e-01 6.394347852007716826e-01 6.413881055804881992e-01 3.917404675314586360e-01 7.036167925064455986e-01 4.189634144946449146e-01 2.883022343850134561e-01 2.270237804626392686e-01 8.802767441159445871e-01 8.179950156864974620e-01 4.643592642302257767e-01 3.308969207738771123e-01 7.295475729291071021e-01 1.956289428817544751e-01 4.121524349373647533e-01 7.307804671320340395e-01 7.203560152578378784e-01 8.811252071155790677e-01 7.955115101159638824e-01 5.620532817369104928e-01 2.022789761355944238e-01 9.841850597576010662e-01 9.940804902195499171e-01 1.399461066228303574e-01 3.360195147786699810e-01 7.742267895313165171e-01 6.677056576141648936e-01 9.664096985111870763e-01 2.948880703733949282e-01 3.249442406901466018e-01 9.326863047059643641e-01 4.963284493142403608e-01 3.350464072724657072e-01 4.536738123698160763e-01 9.129069397279290232e-01 6.369971738306382525e-01 9.937413599723339264e-01 2.088937919723786729e-01 2.277565981504141579e-01 9.591495852878648698e-01 4.394669257442817001e-01 3.003896007172223159e-01 1.036402527114579364e-01
